key_disp,resp_disp,key_inp,trialOrderFile,im_name,Path,Path2,im_fName,im_model,im_emotion,im_percentEmo,im_block,im_rand,im_stimNo,key_correct,loop_checkKeyMap.thisRepN,loop_checkKeyMap.thisTrialN,loop_checkKeyMap.thisN,loop_checkKeyMap.thisIndex,loop_block.thisRepN,loop_block.thisTrialN,loop_block.thisN,loop_block.thisIndex,loop_trials.thisRepN,loop_trials.thisTrialN,loop_trials.thisN,loop_trials.thisIndex,time_expBegin,txt_checkFiles_start.started,txt_checkFiles_start.stopped,txt_checkFiles_end.started,txt_checkFiles_end.stopped,key_checkFilesCompleteAccept.keys,key_checkFilesCompleteAccept.rt,key_checkFilesCompleteAccept.started,key_checkFilesCompleteAccept.stopped,txt_resFileClashWarn.started,txt_resFileClashWarn.stopped,key_resp_resClash.keys,key_resp_resClash.started,key_resp_resClash.stopped,str_keyInst.started,str_keyInst.stopped,key_startTask.keys,key_startTask.rt,key_startTask.started,key_startTask.stopped,txt_checkKeyMap.started,txt_checkKeyMap.stopped,key_resp_checkKeyMap.keys,key_resp_checkKeyMap.rt,key_resp_checkKeyMap.started,key_resp_checkKeyMap.stopped,text_checkKeyMapComplete.started,text_checkKeyMapComplete.stopped,key_beginTrials.keys,key_beginTrials.rt,key_beginTrials.started,key_beginTrials.stopped,text_getReady.started,text_getReady.stopped,im_trialFace.started,im_trialFace.stopped,time_trialBegin,key_respTrial.keys,key_respTrial.corr,key_respTrial.rt,key_respTrial.started,key_respTrial.stopped,time_trialEnd,str_rest.started,str_rest.stopped,key_endRest.keys,key_endRest.rt,key_endRest.started,key_endRest.stopped,time_restBegin,time_restEnd,Study Code,Participant ID,Researcher Name,Task Version Number,Research Visit Number,date,expName,psychopyVersion,frameRate,
,,,,,,,,,,,,,,,,,,,,,,,,,,,8.999952115118504e-06,19.10268409998389,None,21.14039449999109,None,space,3.060744699963834,21.14039449999109,None,,,,,,,,,,,,,,,,,,,,,,,,,,,,,,,,,,,,,,,,,,,1,1,1,1,1,2024_Aug_06_1032,FERT_140222,2021.2.3,60.0375955420383,
,,,,,,,,,,,,,,,,,,,,,,,,,,,,,,,,,,,,None,None,None,None,None,,,,,,,,,,,,,,,,,,,,,,,,,,,,,,,,,,,,,,1,1,1,1,1,2024_Aug_06_1032,FERT_140222,2021.2.3,60.0375955420383,
,,,,,,,,,,,,,,,,,,,,,,,,,,,,,,,,,,,,,,,,,24.255449699994642,None,space,25.32603299996117,24.255449699994642,None,,,,,,,,,,,,,,,,,,,,,,,,,,,,,,,,1,1,1,1,1,2024_Aug_06_1032,FERT_140222,2021.2.3,60.0375955420383,
Z,RAIVA,z,,,,,,,,,,,,,0,0,0,0,,,,,,,,,,,,,,,,,,,,,,,,,,,,,49.62343500001589,None,z,1.9864733000285923,49.62343500001589,None,,,,,,,,,,,,,,,,,,,,,,,,,,1,1,1,1,1,2024_Aug_06_1032,FERT_140222,2021.2.3,60.0375955420383,
X,NOJO,x,,,,,,,,,,,,,0,1,1,1,,,,,,,,,,,,,,,,,,,,,,,,,,,,,51.65497839997988,None,x,2.0203063000226393,51.65497839997988,None,,,,,,,,,,,,,,,,,,,,,,,,,,1,1,1,1,1,2024_Aug_06_1032,FERT_140222,2021.2.3,60.0375955420383,
C,MEDO,c,,,,,,,,,,,,,0,2,2,2,,,,,,,,,,,,,,,,,,,,,,,,,,,,,53.705906499992125,None,c,1.6152333000209183,53.705906499992125,None,,,,,,,,,,,,,,,,,,,,,,,,,,1,1,1,1,1,2024_Aug_06_1032,FERT_140222,2021.2.3,60.0375955420383,
V,FELICIDADE,v,,,,,,,,,,,,,0,3,3,3,,,,,,,,,,,,,,,,,,,,,,,,,,,,,55.35126249998575,None,v,1.8638233999954537,55.35126249998575,None,,,,,,,,,,,,,,,,,,,,,,,,,,1,1,1,1,1,2024_Aug_06_1032,FERT_140222,2021.2.3,60.0375955420383,
B,TRISTEZA,b,,,,,,,,,,,,,0,4,4,4,,,,,,,,,,,,,,,,,,,,,,,,,,,,,57.23692100000335,None,b,0.9462981999968179,57.23692100000335,None,,,,,,,,,,,,,,,,,,,,,,,,,,1,1,1,1,1,2024_Aug_06_1032,FERT_140222,2021.2.3,60.0375955420383,
N,SURPRESA,n,,,,,,,,,,,,,0,5,5,5,,,,,,,,,,,,,,,,,,,,,,,,,,,,,58.2017006999813,None,n,1.2102128000115044,58.2017006999813,None,,,,,,,,,,,,,,,,,,,,,,,,,,1,1,1,1,1,2024_Aug_06_1032,FERT_140222,2021.2.3,60.0375955420383,
M,NEUTRO,m,,,,,,,,,,,,,0,6,6,6,,,,,,,,,,,,,,,,,,,,,,,,,,,,,59.59103589999722,None,m,2.133622800000012,59.59103589999722,None,,,,,,,,,,,,,,,,,,,,,,,,,,1,1,1,1,1,2024_Aug_06_1032,FERT_140222,2021.2.3,60.0375955420383,
,,,,,,,,,,,,,,,,,,,,,,,,,,,,,,,,,,,,,,,,,,,,,,,,,,,,,61.74901820003288,None,space,5.7035981000517495,61.74901820003288,None,,,,,,,,,,,,,,,,,,,,1,1,1,1,1,2024_Aug_06_1032,FERT_140222,2021.2.3,60.0375955420383,
,,,stimControl/trialOrder_ver-1_block-1.xlsx,AF01_Neutral_Sad08.png,FacesImagesToUse/,AF01_Neutral_Sad08.png,FacesImagesToUse/AF01_Neutral_Sad08.png,None,sad,None,1,0.034394967031606716,1,b,,,,,0,0,0,0,0,0,0,0,,,,,,,,,,,,,,,,,,,,,,,,,,,,,,,,,67.50007960002404,None,70.55420589999994,71.06560969998827,51.47027359995991,x,0,2.4837456000386737,70.55420589999994,None,53.98698289995082,,,,,,,,,1,1,1,1,1,2024_Aug_06_1032,FERT_140222,2021.2.3,60.0375955420383,
,,,stimControl/trialOrder_ver-1_block-1.xlsx,AM13_Neutral_Surprise02.png,FacesImagesToUse/,AM13_Neutral_Surprise02.png,FacesImagesToUse/AM13_Neutral_Surprise02.png,None,surprise,None,1,0.03597077710590446,2,n,,,,,0,0,0,0,0,1,1,1,,,,,,,,,,,,,,,,,,,,,,,,,,,,,,,,,,,74.08282070001587,74.58213410002645,55.018459599989,m,0,1.2491430999943987,74.08282070001587,None,56.26785629999358,,,,,,,,,1,1,1,1,1,2024_Aug_06_1032,FERT_140222,2021.2.3,60.0375955420383,
,,,stimControl/trialOrder_ver-1_block-1.xlsx,AF14_Neutral_Happy02.png,FacesImagesToUse/,AF14_Neutral_Happy02.png,FacesImagesToUse/AF14_Neutral_Happy02.png,None,happy,None,1,0.06295654553706498,3,v,,,,,0,0,0,0,0,2,2,2,,,,,,,,,,,,,,,,,,,,,,,,,,,,,,,,,,,76.3661050000228,76.86535640002694,57.29992259998107,m,0,1.3320755999884568,76.3661050000228,None,58.63508899998851,,,,,,,,,1,1,1,1,1,2024_Aug_06_1032,FERT_140222,2021.2.3,60.0375955420383,
,,,stimControl/trialOrder_ver-1_block-1.xlsx,AM13_Neutral_Fear05.png,FacesImagesToUse/,AM13_Neutral_Fear05.png,FacesImagesToUse/AM13_Neutral_Fear05.png,None,fear,None,1,0.11125363687728407,4,c,,,,,0,0,0,0,0,3,3,3,,,,,,,,,,,,,,,,,,,,,,,,,,,,,,,,,,,78.73256620002212,79.23200810002163,59.668229200004134,m,0,2.498551699973177,78.73256620002212,None,62.16760939999949,,,,,,,,,1,1,1,1,1,2024_Aug_06_1032,FERT_140222,2021.2.3,60.0375955420383,
,,,stimControl/trialOrder_ver-1_block-1.xlsx,AM11_Neutral_Surprise10.png,FacesImagesToUse/,AM11_Neutral_Surprise10.png,FacesImagesToUse/AM11_Neutral_Surprise10.png,None,surprise,None,1,0.12766809219078845,5,n,,,,,0,0,0,0,0,4,4,4,,,,,,,,,,,,,,,,,,,,,,,,,,,,,,,,,,,82.26600100001087,82.76542280003196,63.19669219997013,n,1,1.5705234999768436,82.26600100001087,None,64.78485029999865,,,,,,,,,1,1,1,1,1,2024_Aug_06_1032,FERT_140222,2021.2.3,60.0375955420383,
,,,stimControl/trialOrder_ver-1_block-1.xlsx,AF14_Neutral_Happy06.png,FacesImagesToUse/,AF14_Neutral_Happy06.png,FacesImagesToUse/AF14_Neutral_Happy06.png,None,happy,None,1,0.13567604121254273,6,v,,,,,0,0,0,0,0,5,5,5,,,,,,,,,,,,,,,,,,,,,,,,,,,,,,,,,,,84.89902579999762,85.39877189998515,65.82505679997848,v,1,1.9837480999995023,84.89902579999762,None,67.81868269998813,,,,,,,,,1,1,1,1,1,2024_Aug_06_1032,FERT_140222,2021.2.3,60.0375955420383,
,,,stimControl/trialOrder_ver-1_block-1.xlsx,AF14_Neutral_Fear04.png,FacesImagesToUse/,AF14_Neutral_Fear04.png,FacesImagesToUse/AF14_Neutral_Fear04.png,None,fear,None,1,0.16590634276977445,7,c,,,,,0,0,0,0,0,6,6,6,,,,,,,,,,,,,,,,,,,,,,,,,,,,,,,,,,,87.93252830003621,88.43200959998649,68.85724509996362,m,0,1.135945799993351,87.93252830003621,None,70.01691569999093,,,,,,,,,1,1,1,1,1,2024_Aug_06_1032,FERT_140222,2021.2.3,60.0375955420383,
,,,stimControl/trialOrder_ver-1_block-1.xlsx,AM13_Neutral_Disgust05.png,FacesImagesToUse/,AM13_Neutral_Disgust05.png,FacesImagesToUse/AM13_Neutral_Disgust05.png,None,disgust,None,1,0.16629466352018962,8,x,,,,,0,0,0,0,0,7,7,7,,,,,,,,,,,,,,,,,,,,,,,,,,,,,,,,,,,90.11582459998317,90.61532119999174,71.04702729999553,b,0,1.461266099999193,90.11582459998317,None,72.51801089994842,,,,,,,,,1,1,1,1,1,2024_Aug_06_1032,FERT_140222,2021.2.3,60.0375955420383,
,,,stimControl/trialOrder_ver-1_block-1.xlsx,AM13_Neutral_Anger10.png,FacesImagesToUse/,AM13_Neutral_Anger10.png,FacesImagesToUse/AM13_Neutral_Anger10.png,None,anger,None,1,0.17172516291019202,9,z,,,,,0,0,0,0,0,8,8,8,,,,,,,,,,,,,,,,,,,,,,,,,,,,,,,,,,,92.6157992000226,93.1153534000041,73.54342979996,z,1,2.4254521999973804,92.6157992000226,None,75.98497910000151,,,,,,,,,1,1,1,1,1,2024_Aug_06_1032,FERT_140222,2021.2.3,60.0375955420383,
,,,stimControl/trialOrder_ver-1_block-1.xlsx,AF14_Neutral_Fear05.png,FacesImagesToUse/,AF14_Neutral_Fear05.png,FacesImagesToUse/AF14_Neutral_Fear05.png,None,fear,None,1,0.1781436832811193,10,c,,,,,0,0,0,0,0,9,9,9,,,,,,,,,,,,,,,,,,,,,,,,,,,,,,,,,,,96.0989301999798,96.59823790000519,77.02470819995506,c,1,3.222673100011889,96.0989301999798,None,80.26809819997288,,,,,,,,,1,1,1,1,1,2024_Aug_06_1032,FERT_140222,2021.2.3,60.0375955420383,
,,,stimControl/trialOrder_ver-1_block-1.xlsx,AM13_Neutral_Happy11.png,FacesImagesToUse/,AM13_Neutral_Happy11.png,FacesImagesToUse/AM13_Neutral_Happy11.png,None,happy,None,1,0.18427587503293197,11,v,,,,,0,0,0,0,0,10,10,10,,,,,,,,,,,,,,,,,,,,,,,,,,,,,,,,,,,100.38228000001982,100.88203430001158,81.30736459995387,v,1,2.023814100015443,100.38228000001982,None,83.35124210000504,,,,,,,,,1,1,1,1,1,2024_Aug_06_1032,FERT_140222,2021.2.3,60.0375955420383,
,,,stimControl/trialOrder_ver-1_block-1.xlsx,AF01_Neutral_Anger09.png,FacesImagesToUse/,AF01_Neutral_Anger09.png,FacesImagesToUse/AF01_Neutral_Anger09.png,None,anger,None,1,0.1900885303867451,12,z,,,,,0,0,0,0,0,11,11,11,,,,,,,,,,,,,,,,,,,,,,,,,,,,,,,,,,,103.46566869999515,103.96532170003047,84.38927079999121,z,1,2.355016900051851,103.46566869999515,None,86.76797389995772,,,,,,,,,1,1,1,1,1,2024_Aug_06_1032,FERT_140222,2021.2.3,60.0375955420383,
,,,stimControl/trialOrder_ver-1_block-1.xlsx,AM11_Neutral_Fear04.png,FacesImagesToUse/,AM11_Neutral_Fear04.png,FacesImagesToUse/AM11_Neutral_Fear04.png,None,fear,None,1,0.20133592811074563,13,c,,,,,0,0,0,0,0,12,12,12,,,,,,,,,,,,,,,,,,,,,,,,,,,,,,,,,,,106.8820265000104,107.38141129998257,87.80496979999589,m,0,1.2492063999525271,106.8820265000104,None,89.06757769995602,,,,,,,,,1,1,1,1,1,2024_Aug_06_1032,FERT_140222,2021.2.3,60.0375955420383,
,,,stimControl/trialOrder_ver-1_block-1.xlsx,AM13_Neutral_Anger02.png,FacesImagesToUse/,AM13_Neutral_Anger02.png,FacesImagesToUse/AM13_Neutral_Anger02.png,None,anger,None,1,0.23525585004912797,14,z,,,,,0,0,0,0,0,13,13,13,,,,,,,,,,,,,,,,,,,,,,,,,,,,,,,,,,,109.18199640000239,109.68174279999221,90.10772489994997,m,0,1.0604044999927282,109.18199640000239,None,91.1855258999858,,,,,,,,,1,1,1,1,1,2024_Aug_06_1032,FERT_140222,2021.2.3,60.0375955420383,
,,,stimControl/trialOrder_ver-1_block-1.xlsx,AM13_Neutral_Neutral11.png,FacesImagesToUse/,AM13_Neutral_Neutral11.png,FacesImagesToUse/AM13_Neutral_Neutral11.png,None,neutral,None,1,0.2491960571907459,15,m,,,,,0,0,0,0,0,14,14,14,,,,,,,,,,,,,,,,,,,,,,,,,,,,,,,,,,,111.29879470000742,111.79855519998819,92.22516919998452,m,1,1.1723830999690108,111.29879470000742,None,93.41770489996998,,,,,,,,,1,1,1,1,1,2024_Aug_06_1032,FERT_140222,2021.2.3,60.0375955420383,
,,,stimControl/trialOrder_ver-1_block-1.xlsx,AF14_Neutral_Disgust03.png,FacesImagesToUse/,AF14_Neutral_Disgust03.png,FacesImagesToUse/AF14_Neutral_Disgust03.png,None,disgust,None,1,0.25877486024615304,16,x,,,,,0,0,0,0,0,15,15,15,,,,,,,,,,,,,,,,,,,,,,,,,,,,,,,,,,,113.53208849998191,114.03159480000613,94.45720179995988,m,0,1.08075139997527,113.53208849998191,None,95.72192579996772,,,,,,,,,1,1,1,1,1,2024_Aug_06_1032,FERT_140222,2021.2.3,60.0375955420383,
,,,stimControl/trialOrder_ver-1_block-1.xlsx,AM11_Neutral_Disgust05.png,FacesImagesToUse/,AM11_Neutral_Disgust05.png,FacesImagesToUse/AM11_Neutral_Disgust05.png,None,disgust,None,1,0.27757610970588353,17,x,,,,,0,0,0,0,0,16,16,16,,,,,,,,,,,,,,,,,,,,,,,,,,,,,,,,,,,115.83258709998336,116.33168509998359,96.74927819997538,b,0,2.0757472999976017,115.83258709998336,None,98.85099159996025,,,,,,,,,1,1,1,1,1,2024_Aug_06_1032,FERT_140222,2021.2.3,60.0375955420383,
,,,stimControl/trialOrder_ver-1_block-1.xlsx,AF14_Neutral_Happy03.png,FacesImagesToUse/,AF14_Neutral_Happy03.png,FacesImagesToUse/AF14_Neutral_Happy03.png,None,happy,None,1,0.3136597447947034,18,v,,,,,0,0,0,0,0,17,17,17,,,,,,,,,,,,,,,,,,,,,,,,,,,,,,,,,,,118.96549480000976,119.464696799987,99.89044249994913,v,1,2.1336637000204064,118.96549480000976,None,102.03566269995645,,,,,,,,,1,1,1,1,1,2024_Aug_06_1032,FERT_140222,2021.2.3,60.0375955420383,
,,,stimControl/trialOrder_ver-1_block-1.xlsx,AM11_Neutral_Surprise05.png,FacesImagesToUse/,AM11_Neutral_Surprise05.png,FacesImagesToUse/AM11_Neutral_Surprise05.png,None,surprise,None,1,0.3195750623782285,19,n,,,,,0,0,0,0,0,18,18,18,,,,,,,,,,,,,,,,,,,,,,,,,,,,,,,,,,,122.14877750002779,122.64839500002563,103.07467689999612,n,1,1.3363292000140063,122.14877750002779,None,104.43423669994809,,,,,,,,,1,1,1,1,1,2024_Aug_06_1032,FERT_140222,2021.2.3,60.0375955420383,
,,,stimControl/trialOrder_ver-1_block-1.xlsx,AF14_Neutral_Sad08.png,FacesImagesToUse/,AF14_Neutral_Sad08.png,FacesImagesToUse/AF14_Neutral_Sad08.png,None,sad,None,1,0.3457193143695332,20,b,,,,,0,0,0,0,0,19,19,19,,,,,,,,,,,,,,,,,,,,,,,,,,,,,,,,,,,124.5484822000144,125.04820469999686,105.47389739996288,b,1,2.1642618000041693,124.5484822000144,None,107.65004409995163,,,,,,,,,1,1,1,1,1,2024_Aug_06_1032,FERT_140222,2021.2.3,60.0375955420383,
,,,stimControl/trialOrder_ver-1_block-1.xlsx,AF01_Neutral_Fear07.png,FacesImagesToUse/,AF01_Neutral_Fear07.png,FacesImagesToUse/AF01_Neutral_Fear07.png,None,fear,None,1,0.34699523346510586,21,c,,,,,0,0,0,0,0,20,20,20,,,,,,,,,,,,,,,,,,,,,,,,,,,,,,,,,,,127.7653866999899,128.26492819999112,108.69012199999997,n,0,3.288542399997823,127.7653866999899,None,112.00038039998617,,,,,,,,,1,1,1,1,1,2024_Aug_06_1032,FERT_140222,2021.2.3,60.0375955420383,
,,,stimControl/trialOrder_ver-1_block-1.xlsx,AM11_Neutral_Happy05.png,FacesImagesToUse/,AM11_Neutral_Happy05.png,FacesImagesToUse/AM11_Neutral_Happy05.png,None,happy,None,1,0.3544873139407133,22,v,,,,,0,0,0,0,0,21,21,21,,,,,,,,,,,,,,,,,,,,,,,,,,,,,,,,,,,132.11516960000154,132.6148009999888,113.03878179995809,v,1,2.0102575999917462,132.11516960000154,None,115.06762089999393,,,,,,,,,1,1,1,1,1,2024_Aug_06_1032,FERT_140222,2021.2.3,60.0375955420383,
,,,stimControl/trialOrder_ver-1_block-1.xlsx,AM11_Neutral_Anger07.png,FacesImagesToUse/,AM11_Neutral_Anger07.png,FacesImagesToUse/AM11_Neutral_Anger07.png,None,anger,None,1,0.35742765694813483,23,z,,,,,0,0,0,0,0,22,22,22,,,,,,,,,,,,,,,,,,,,,,,,,,,,,,,,,,,135.16496590001043,135.66483379999408,116.10411029995885,z,1,2.315138100006152,135.16496590001043,None,118.41707389999647,,,,,,,,,1,1,1,1,1,2024_Aug_06_1032,FERT_140222,2021.2.3,60.0375955420383,
,,,stimControl/trialOrder_ver-1_block-1.xlsx,AF01_Neutral_Disgust08.png,FacesImagesToUse/,AF01_Neutral_Disgust08.png,FacesImagesToUse/AF01_Neutral_Disgust08.png,None,disgust,None,1,0.3715180891532228,24,x,,,,,0,0,0,0,0,23,23,23,,,,,,,,,,,,,,,,,,,,,,,,,,,,,,,,,,,138.53204840002581,139.0313768000342,119.45707479998237,x,1,1.862494200002402,138.53204840002581,None,121.33375639998121,,,,,,,,,1,1,1,1,1,2024_Aug_06_1032,FERT_140222,2021.2.3,60.0375955420383,
,,,stimControl/trialOrder_ver-1_block-1.xlsx,AF14_Neutral_Disgust10.png,FacesImagesToUse/,AF14_Neutral_Disgust10.png,FacesImagesToUse/AF14_Neutral_Disgust10.png,None,disgust,None,1,0.37541264492838844,25,x,,,,,0,0,0,0,0,24,24,24,,,,,,,,,,,,,,,,,,,,,,,,,,,,,,,,,,,141.43181520001963,141.9312357000308,122.36956599995028,z,0,3.187860500009265,141.43181520001963,None,125.56848610000452,,,,,,,,,1,1,1,1,1,2024_Aug_06_1032,FERT_140222,2021.2.3,60.0375955420383,
,,,stimControl/trialOrder_ver-1_block-1.xlsx,AF01_Neutral_Sad06.png,FacesImagesToUse/,AF01_Neutral_Sad06.png,FacesImagesToUse/AF01_Neutral_Sad06.png,None,sad,None,1,0.40568509331530767,26,b,,,,,0,0,0,0,0,25,25,25,,,,,,,,,,,,,,,,,,,,,,,,,,,,,,,,,,,145.66537750000134,146.1648454000242,126.59267079998972,m,0,2.29328159999568,145.66537750000134,None,128.90097649995005,,,,,,,,,1,1,1,1,1,2024_Aug_06_1032,FERT_140222,2021.2.3,60.0375955420383,
,,,stimControl/trialOrder_ver-1_block-1.xlsx,AF01_Neutral_Surprise11.png,FacesImagesToUse/,AF01_Neutral_Surprise11.png,FacesImagesToUse/AF01_Neutral_Surprise11.png,None,surprise,None,1,0.4066161703843342,27,n,,,,,0,0,0,0,0,26,26,26,,,,,,,,,,,,,,,,,,,,,,,,,,,,,,,,,,,149.01451649999944,149.51452319999225,129.94236159999855,n,1,1.3669175999821164,149.01451649999944,None,131.31788119999692,,,,,,,,,1,1,1,1,1,2024_Aug_06_1032,FERT_140222,2021.2.3,60.0375955420383,
,,,stimControl/trialOrder_ver-1_block-1.xlsx,AF14_Neutral_Surprise07.png,FacesImagesToUse/,AF14_Neutral_Surprise07.png,FacesImagesToUse/AF14_Neutral_Surprise07.png,None,surprise,None,1,0.41662774625906973,28,n,,,,,0,0,0,0,0,27,27,27,,,,,,,,,,,,,,,,,,,,,,,,,,,,,,,,,,,151.43161050003255,151.93144930002745,132.35746149998158,n,1,1.1411959999823011,151.43161050003255,None,133.5173801999772,,,,,,,,,1,1,1,1,1,2024_Aug_06_1032,FERT_140222,2021.2.3,60.0375955420383,
,,,stimControl/trialOrder_ver-1_block-1.xlsx,AF14_Neutral_Sad09.png,FacesImagesToUse/,AF14_Neutral_Sad09.png,FacesImagesToUse/AF14_Neutral_Sad09.png,None,sad,None,1,0.4382868006700954,29,b,,,,,0,0,0,0,0,28,28,28,,,,,,,,,,,,,,,,,,,,,,,,,,,,,,,,,,,153.6316609000205,154.13106849999167,134.55515259999083,b,1,1.7859484999789856,153.6316609000205,None,136.36770459997933,,,,,,,,,1,1,1,1,1,2024_Aug_06_1032,FERT_140222,2021.2.3,60.0375955420383,
,,,stimControl/trialOrder_ver-1_block-1.xlsx,AF01_Neutral_Sad05.png,FacesImagesToUse/,AF01_Neutral_Sad05.png,FacesImagesToUse/AF01_Neutral_Sad05.png,None,sad,None,1,0.44014225708644417,30,b,,,,,0,0,0,0,0,29,29,29,,,,,,,,,,,,,,,,,,,,,,,,,,,,,,,,,,,156.48160850000568,156.98144790000515,137.40716519998387,m,0,1.6336157000041567,156.48160850000568,None,139.0510026999982,,,,,,,,,1,1,1,1,1,2024_Aug_06_1032,FERT_140222,2021.2.3,60.0375955420383,
,,,stimControl/trialOrder_ver-1_block-1.xlsx,AF01_Neutral_Anger08.png,FacesImagesToUse/,AF01_Neutral_Anger08.png,FacesImagesToUse/AF01_Neutral_Anger08.png,None,anger,None,1,0.4427855455458015,31,z,,,,,0,0,0,0,0,30,30,30,,,,,,,,,,,,,,,,,,,,,,,,,,,,,,,,,,,159.16522690001875,159.6645439999993,140.08981909998693,z,1,3.040542999980971,159.16522690001875,None,143.1511874999851,,,,,,,,,1,1,1,1,1,2024_Aug_06_1032,FERT_140222,2021.2.3,60.0375955420383,
,,,stimControl/trialOrder_ver-1_block-1.xlsx,AM11_Neutral_Anger11.png,FacesImagesToUse/,AM11_Neutral_Anger11.png,FacesImagesToUse/AM11_Neutral_Anger11.png,None,anger,None,1,0.44659522934734297,32,z,,,,,0,0,0,0,0,31,31,31,,,,,,,,,,,,,,,,,,,,,,,,,,,,,,,,,,,163.26503790001152,163.76447180000832,144.19014809996588,z,1,1.2689969000057317,163.26503790001152,None,145.48372159997234,,,,,,,,,1,1,1,1,1,2024_Aug_06_1032,FERT_140222,2021.2.3,60.0375955420383,
,,,stimControl/trialOrder_ver-1_block-1.xlsx,AF14_Neutral_Happy11.png,FacesImagesToUse/,AF14_Neutral_Happy11.png,FacesImagesToUse/AF14_Neutral_Happy11.png,None,happy,None,1,0.4488095356379789,33,v,,,,,0,0,0,0,0,32,32,32,,,,,,,,,,,,,,,,,,,,,,,,,,,,,,,,,,,165.59845280001173,166.0976873000036,146.52181419997942,v,1,1.6089336999575607,165.59845280001173,None,148.15023259998998,,,,,,,,,1,1,1,1,1,2024_Aug_06_1032,FERT_140222,2021.2.3,60.0375955420383,
,,,stimControl/trialOrder_ver-1_block-1.xlsx,AM11_Neutral_Happy04.png,FacesImagesToUse/,AM11_Neutral_Happy04.png,FacesImagesToUse/AM11_Neutral_Happy04.png,None,happy,None,1,0.4568846799468612,34,v,,,,,0,0,0,0,0,33,33,33,,,,,,,,,,,,,,,,,,,,,,,,,,,,,,,,,,,168.26468309998745,168.7645463999943,149.18889279995346,v,1,1.7728031000006013,168.26468309998745,None,150.98386809998192,,,,,,,,,1,1,1,1,1,2024_Aug_06_1032,FERT_140222,2021.2.3,60.0375955420383,
,,,stimControl/trialOrder_ver-1_block-1.xlsx,AM13_Neutral_Fear08.png,FacesImagesToUse/,AM13_Neutral_Fear08.png,FacesImagesToUse/AM13_Neutral_Fear08.png,None,fear,None,1,0.49326142870711154,35,c,,,,,0,0,0,0,0,34,34,34,,,,,,,,,,,,,,,,,,,,,,,,,,,,,,,,,,,171.09824730001856,171.59763560001738,152.02357939997455,c,1,1.9603974999627098,171.09824730001856,None,154.00108189997263,,,,,,,,,1,1,1,1,1,2024_Aug_06_1032,FERT_140222,2021.2.3,60.0375955420383,
,,,stimControl/trialOrder_ver-1_block-1.xlsx,AF01_Neutral_Happy08.png,FacesImagesToUse/,AF01_Neutral_Happy08.png,FacesImagesToUse/AF01_Neutral_Happy08.png,None,happy,None,1,0.5096252673111986,36,v,,,,,0,0,0,0,0,35,35,35,,,,,,,,,,,,,,,,,,,,,,,,,,,,,,,,,,,174.11489090003306,174.61411309998948,155.04040050000185,v,1,2.008082000014838,174.11489090003306,None,157.06719239999074,,,,,,,,,1,1,1,1,1,2024_Aug_06_1032,FERT_140222,2021.2.3,60.0375955420383,
,,,stimControl/trialOrder_ver-1_block-1.xlsx,AM11_Neutral_Fear09.png,FacesImagesToUse/,AM11_Neutral_Fear09.png,FacesImagesToUse/AM11_Neutral_Fear09.png,None,fear,None,1,0.5164247456029705,37,c,,,,,0,0,0,0,0,36,36,36,,,,,,,,,,,,,,,,,,,,,,,,,,,,,,,,,,,177.18149580003228,177.68089670001063,158.10711349995108,c,1,1.7064436000073329,177.18149580003228,None,159.83405799994944,,,,,,,,,1,1,1,1,1,2024_Aug_06_1032,FERT_140222,2021.2.3,60.0375955420383,
,,,stimControl/trialOrder_ver-1_block-1.xlsx,AF01_Neutral_Surprise05.png,FacesImagesToUse/,AF01_Neutral_Surprise05.png,FacesImagesToUse/AF01_Neutral_Surprise05.png,None,surprise,None,1,0.5248198038930326,38,n,,,,,0,0,0,0,0,37,37,37,,,,,,,,,,,,,,,,,,,,,,,,,,,,,,,,,,,179.94805559999077,180.4477246000315,160.87326579994988,n,1,5.284601699968334,179.94805559999077,None,166.16667189996224,,,,,,,,,1,1,1,1,1,2024_Aug_06_1032,FERT_140222,2021.2.3,60.0375955420383,
,,,stimControl/trialOrder_ver-1_block-1.xlsx,AM13_Neutral_Fear04.png,FacesImagesToUse/,AM13_Neutral_Fear04.png,FacesImagesToUse/AM13_Neutral_Fear04.png,None,fear,None,1,0.5297176458237836,39,c,,,,,0,0,0,0,0,38,38,38,,,,,,,,,,,,,,,,,,,,,,,,,,,,,,,,,,,186.2815702999942,186.78087550000055,167.20413159998134,m,0,1.126157000020612,186.2815702999942,None,168.5101867999765,,,,,,,,,1,1,1,1,1,2024_Aug_06_1032,FERT_140222,2021.2.3,60.0375955420383,
,,,stimControl/trialOrder_ver-1_block-1.xlsx,AM11_Neutral_Fear02.png,FacesImagesToUse/,AM11_Neutral_Fear02.png,FacesImagesToUse/AM11_Neutral_Fear02.png,None,fear,None,1,0.5519752525045152,40,c,,,,,0,0,0,0,0,39,39,39,,,,,,,,,,,,,,,,,,,,,,,,,,,,,,,,,,,188.61472220002906,189.11443529999815,169.53695939999307,m,0,0.9294113999931142,188.61472220002906,None,170.48341109999456,,,,,,,,,1,1,1,1,1,2024_Aug_06_1032,FERT_140222,2021.2.3,60.0375955420383,
,,,stimControl/trialOrder_ver-1_block-1.xlsx,AF01_Neutral_Happy10.png,FacesImagesToUse/,AF01_Neutral_Happy10.png,FacesImagesToUse/AF01_Neutral_Happy10.png,None,happy,None,1,0.5715914280737201,41,v,,,,,0,0,0,0,0,40,40,40,,,,,,,,,,,,,,,,,,,,,,,,,,,,,,,,,,,190.59819590003463,191.09765190002508,171.52320209995378,v,1,1.2718223999836482,190.59819590003463,None,172.8170268999529,,,,,,,,,1,1,1,1,1,2024_Aug_06_1032,FERT_140222,2021.2.3,60.0375955420383,
,,,stimControl/trialOrder_ver-1_block-1.xlsx,AM13_Neutral_Fear03.png,FacesImagesToUse/,AM13_Neutral_Fear03.png,FacesImagesToUse/AM13_Neutral_Fear03.png,None,fear,None,1,0.572591732649759,42,c,,,,,0,0,0,0,0,41,41,41,,,,,,,,,,,,,,,,,,,,,,,,,,,,,,,,,,,192.93120460002683,193.43076790001942,173.85642579995329,m,0,1.054189899994526,192.93120460002683,None,174.93359049997525,,,,,,,,,1,1,1,1,1,2024_Aug_06_1032,FERT_140222,2021.2.3,60.0375955420383,
,,,stimControl/trialOrder_ver-1_block-1.xlsx,AF14_Neutral_Sad07.png,FacesImagesToUse/,AF14_Neutral_Sad07.png,FacesImagesToUse/AF14_Neutral_Sad07.png,None,sad,None,1,0.5872842937169283,43,b,,,,,0,0,0,0,0,42,42,42,,,,,,,,,,,,,,,,,,,,,,,,,,,,,,,,,,,195.0309152000118,195.5307116000331,175.96573100000387,c,0,2.412885900004767,195.0309152000118,None,178.38344859995414,,,,,,,,,1,1,1,1,1,2024_Aug_06_1032,FERT_140222,2021.2.3,60.0375955420383,
,,,stimControl/trialOrder_ver-1_block-1.xlsx,AM11_Neutral_Anger09.png,FacesImagesToUse/,AM11_Neutral_Anger09.png,FacesImagesToUse/AM11_Neutral_Anger09.png,None,anger,None,1,0.5948499993184824,44,z,,,,,0,0,0,0,0,43,43,43,,,,,,,,,,,,,,,,,,,,,,,,,,,,,,,,,,,198.49791269999696,198.99762740003644,179.42216570000164,z,1,1.9494746000273153,198.49791269999696,None,181.38299199996982,,,,,,,,,1,1,1,1,1,2024_Aug_06_1032,FERT_140222,2021.2.3,60.0375955420383,
,,,stimControl/trialOrder_ver-1_block-1.xlsx,AF01_Neutral_Anger11.png,FacesImagesToUse/,AF01_Neutral_Anger11.png,FacesImagesToUse/AF01_Neutral_Anger11.png,None,anger,None,1,0.622274532087714,45,z,,,,,0,0,0,0,0,44,44,44,,,,,,,,,,,,,,,,,,,,,,,,,,,,,,,,,,,201.49776350002503,201.99721649999265,182.42130539997015,z,1,1.3181476999889128,201.49776350002503,None,183.7686605999479,,,,,,,,,1,1,1,1,1,2024_Aug_06_1032,FERT_140222,2021.2.3,60.0375955420383,
,,,stimControl/trialOrder_ver-1_block-1.xlsx,AM11_Neutral_Surprise08.png,FacesImagesToUse/,AM11_Neutral_Surprise08.png,FacesImagesToUse/AM11_Neutral_Surprise08.png,None,surprise,None,1,0.6327468304328463,46,n,,,,,0,0,0,0,0,45,45,45,,,,,,,,,,,,,,,,,,,,,,,,,,,,,,,,,,,203.88147259998368,204.38143110001693,184.8067347999895,n,1,1.0488712000078522,203.88147259998368,None,185.8667287999997,,,,,,,,,1,1,1,1,1,2024_Aug_06_1032,FERT_140222,2021.2.3,60.0375955420383,
,,,stimControl/trialOrder_ver-1_block-1.xlsx,AM11_Neutral_Sad04.png,FacesImagesToUse/,AM11_Neutral_Sad04.png,FacesImagesToUse/AM11_Neutral_Sad04.png,None,sad,None,1,0.6340388479144309,47,b,,,,,0,0,0,0,0,46,46,46,,,,,,,,,,,,,,,,,,,,,,,,,,,,,,,,,,,205.98101430002134,206.4806058999966,186.9069950999692,b,1,2.906478499993682,205.98101430002134,None,189.83339529996738,,,,,,,,,1,1,1,1,1,2024_Aug_06_1032,FERT_140222,2021.2.3,60.0375955420383,
,,,stimControl/trialOrder_ver-1_block-1.xlsx,AF01_Neutral_Happy05.png,FacesImagesToUse/,AF01_Neutral_Happy05.png,FacesImagesToUse/AF01_Neutral_Happy05.png,None,happy,None,1,0.641724175775043,48,v,,,,,0,0,0,0,0,47,47,47,,,,,,,,,,,,,,,,,,,,,,,,,,,,,,,,,,,209.94785280001815,210.447305699985,190.87364760000492,v,1,4.279746299958788,209.94785280001815,None,195.16701799997827,,,,,,,,,1,1,1,1,1,2024_Aug_06_1032,FERT_140222,2021.2.3,60.0375955420383,
,,,stimControl/trialOrder_ver-1_block-1.xlsx,AF14_Neutral_Surprise04.png,FacesImagesToUse/,AF14_Neutral_Surprise04.png,FacesImagesToUse/AF14_Neutral_Surprise04.png,None,surprise,None,1,0.6527710537965701,49,n,,,,,0,0,0,0,0,48,48,48,,,,,,,,,,,,,,,,,,,,,,,,,,,,,,,,,,,215.28073880000738,215.78086110000731,196.2049401999684,n,1,1.4859305000281893,215.28073880000738,None,197.71771209995495,,,,,,,,,1,1,1,1,1,2024_Aug_06_1032,FERT_140222,2021.2.3,60.0375955420383,
,,,stimControl/trialOrder_ver-1_block-1.xlsx,AF01_Neutral_Anger10.png,FacesImagesToUse/,AF01_Neutral_Anger10.png,FacesImagesToUse/AF01_Neutral_Anger10.png,None,anger,None,1,0.6598143139884062,50,z,,,,,0,0,0,0,0,49,49,49,,,,,,,,,,,,,,,,,,,,,,,,,,,,,,,,,,,217.83095630002208,218.33048160001636,198.75785159994848,z,1,1.4995099999941885,217.83095630002208,None,200.26693499996327,,,,,,,,,1,1,1,1,1,2024_Aug_06_1032,FERT_140222,2021.2.3,60.0375955420383,
,,,stimControl/trialOrder_ver-1_block-1.xlsx,AM11_Neutral_Neutral11.png,FacesImagesToUse/,AM11_Neutral_Neutral11.png,FacesImagesToUse/AM11_Neutral_Neutral11.png,None,neutral,None,1,0.680312377318694,51,m,,,,,0,0,0,0,0,50,50,50,,,,,,,,,,,,,,,,,,,,,,,,,,,,,,,,,,,220.36434169998392,220.8637849999941,201.30149260000326,b,0,3.932376299984753,220.36434169998392,None,205.233623099979,,,,,,,,,1,1,1,1,1,2024_Aug_06_1032,FERT_140222,2021.2.3,60.0375955420383,
,,,stimControl/trialOrder_ver-1_block-1.xlsx,AF01_Neutral_Disgust09.png,FacesImagesToUse/,AF01_Neutral_Disgust09.png,FacesImagesToUse/AF01_Neutral_Disgust09.png,None,disgust,None,1,0.6940709885708781,52,x,,,,,0,0,0,0,0,51,51,51,,,,,,,,,,,,,,,,,,,,,,,,,,,,,,,,,,,225.34780250000767,225.84712450002553,206.2710512999911,x,1,2.557217800000217,225.34780250000767,None,208.85023439995712,,,,,,,,,1,1,1,1,1,2024_Aug_06_1032,FERT_140222,2021.2.3,60.0375955420383,
,,,stimControl/trialOrder_ver-1_block-1.xlsx,AM13_Neutral_Sad09.png,FacesImagesToUse/,AM13_Neutral_Sad09.png,FacesImagesToUse/AM13_Neutral_Sad09.png,None,sad,None,1,0.7074738042277136,53,b,,,,,0,0,0,0,0,52,52,52,,,,,,,,,,,,,,,,,,,,,,,,,,,,,,,,,,,228.96422830002848,229.46393630001694,209.8897323999554,b,1,4.595699700003024,228.96422830002848,None,214.49983479996445,,,,,,,,,1,1,1,1,1,2024_Aug_06_1032,FERT_140222,2021.2.3,60.0375955420383,
,,,stimControl/trialOrder_ver-1_block-1.xlsx,AF14_Neutral_Anger07.png,FacesImagesToUse/,AF14_Neutral_Anger07.png,FacesImagesToUse/AF14_Neutral_Anger07.png,None,anger,None,1,0.7274076857721369,54,z,,,,,0,0,0,0,0,53,53,53,,,,,,,,,,,,,,,,,,,,,,,,,,,,,,,,,,,234.61389620002592,235.1137793000089,215.5374156999751,z,1,2.7751698999782093,234.61389620002592,None,218.33303579996573,,,,,,,,,1,1,1,1,1,2024_Aug_06_1032,FERT_140222,2021.2.3,60.0375955420383,
,,,stimControl/trialOrder_ver-1_block-1.xlsx,AM13_Neutral_Sad06.png,FacesImagesToUse/,AM13_Neutral_Sad06.png,FacesImagesToUse/AM13_Neutral_Sad06.png,None,sad,None,1,0.7498950818424026,55,b,,,,,0,0,0,0,0,54,54,54,,,,,,,,,,,,,,,,,,,,,,,,,,,,,,,,,,,238.44737680000253,238.9467373000225,219.37234379997244,b,1,1.5891567000071518,238.44737680000253,None,220.98309959995095,,,,,,,,,1,1,1,1,1,2024_Aug_06_1032,FERT_140222,2021.2.3,60.0375955420383,
,,,stimControl/trialOrder_ver-1_block-1.xlsx,AF14_Neutral_Disgust11.png,FacesImagesToUse/,AF14_Neutral_Disgust11.png,FacesImagesToUse/AF14_Neutral_Disgust11.png,None,disgust,None,1,0.7541753060727951,56,x,,,,,0,0,0,0,0,55,55,55,,,,,,,,,,,,,,,,,,,,,,,,,,,,,,,,,,,241.09743570000865,241.59702200000174,222.02276959997835,c,0,2.121914499963168,241.09743570000865,None,224.1663794000051,,,,,,,,,1,1,1,1,1,2024_Aug_06_1032,FERT_140222,2021.2.3,60.0375955420383,
,,,stimControl/trialOrder_ver-1_block-1.xlsx,AM13_Neutral_Disgust09.png,FacesImagesToUse/,AM13_Neutral_Disgust09.png,FacesImagesToUse/AM13_Neutral_Disgust09.png,None,disgust,None,1,0.7590066441160074,57,x,,,,,0,0,0,0,0,56,56,56,,,,,,,,,,,,,,,,,,,,,,,,,,,,,,,,,,,244.28074479999486,244.78049119998468,225.20376599999145,c,0,2.423908400000073,244.28074479999486,None,227.64965009997832,,,,,,,,,1,1,1,1,1,2024_Aug_06_1032,FERT_140222,2021.2.3,60.0375955420383,
,,,stimControl/trialOrder_ver-1_block-1.xlsx,AM11_Neutral_Surprise07.png,FacesImagesToUse/,AM11_Neutral_Surprise07.png,FacesImagesToUse/AM11_Neutral_Surprise07.png,None,surprise,None,1,0.7734947412952237,58,n,,,,,0,0,0,0,0,57,57,57,,,,,,,,,,,,,,,,,,,,,,,,,,,,,,,,,,,247.7638718999806,248.26347900001565,228.687729199999,n,1,1.1289171000244096,247.7638718999806,None,229.8333020999562,,,,,,,,,1,1,1,1,1,2024_Aug_06_1032,FERT_140222,2021.2.3,60.0375955420383,
,,,stimControl/trialOrder_ver-1_block-1.xlsx,AM11_Neutral_Sad02.png,FacesImagesToUse/,AM11_Neutral_Sad02.png,FacesImagesToUse/AM11_Neutral_Sad02.png,None,sad,None,1,0.782917478587174,59,b,,,,,0,0,0,0,0,58,58,58,,,,,,,,,,,,,,,,,,,,,,,,,,,,,,,,,,,249.93081360001815,250.43019660003483,230.8554265999701,m,0,1.2166757000377402,249.93081360001815,None,232.08271139999852,,,,,,,,,1,1,1,1,1,2024_Aug_06_1032,FERT_140222,2021.2.3,60.0375955420383,
,,,stimControl/trialOrder_ver-1_block-1.xlsx,AM13_Neutral_Disgust07.png,FacesImagesToUse/,AM13_Neutral_Disgust07.png,FacesImagesToUse/AM13_Neutral_Disgust07.png,None,disgust,None,1,0.7867271513619878,60,x,,,,,0,0,0,0,0,59,59,59,,,,,,,,,,,,,,,,,,,,,,,,,,,,,,,,,,,252.19777640001848,252.69692339998437,233.12167389999377,x,1,2.1380230999784544,252.19777640001848,None,235.28211349999765,,,,,,,,,1,1,1,1,1,2024_Aug_06_1032,FERT_140222,2021.2.3,60.0375955420383,
,,,stimControl/trialOrder_ver-1_block-1.xlsx,AF14_Neutral_Surprise02.png,FacesImagesToUse/,AF14_Neutral_Surprise02.png,FacesImagesToUse/AF14_Neutral_Surprise02.png,None,surprise,None,1,0.8000012528177103,61,n,,,,,0,0,0,0,0,60,60,60,,,,,,,,,,,,,,,,,,,,,,,,,,,,,,,,,,,255.38036850001663,255.88023160002194,236.3079463999602,m,0,1.3872864000150003,255.38036850001663,None,237.71593599999323,,,,,,,,,1,1,1,1,1,2024_Aug_06_1032,FERT_140222,2021.2.3,60.0375955420383,
,,,stimControl/trialOrder_ver-1_block-1.xlsx,AM13_Neutral_Disgust10.png,FacesImagesToUse/,AM13_Neutral_Disgust10.png,FacesImagesToUse/AM13_Neutral_Disgust10.png,None,disgust,None,1,0.8046693543305443,62,x,,,,,0,0,0,0,0,61,61,61,,,,,,,,,,,,,,,,,,,,,,,,,,,,,,,,,,,257.83052840002347,258.3300714000361,238.7540244999691,x,1,3.0445351999951527,257.83052840002347,None,241.8161715999595,,,,,,,,,1,1,1,1,1,2024_Aug_06_1032,FERT_140222,2021.2.3,60.0375955420383,
,,,stimControl/trialOrder_ver-1_block-1.xlsx,,,,,,,,,,,,,,,,0,0,0,0,,,,,,,,,,,,,,,,,,,,,,,,,,,,,,,,,,,,,,,,,,,,,,,,260.9029279000242,None,space,3.536133699992206,260.9029279000242,None,241.82748969999375,245.38332859997172,1,1,1,1,1,2024_Aug_06_1032,FERT_140222,2021.2.3,60.0375955420383,
,,,stimControl/trialOrder_ver-1_block-2.xlsx,AF01_Neutral_Fear06.png,FacesImagesToUse/,AF01_Neutral_Fear06.png,FacesImagesToUse/AF01_Neutral_Fear06.png,AF13,fear,None,2,0.001217955,1,c,,,,,0,1,1,1,0,0,0,0,,,,,,,,,,,,,,,,,,,,,,,,,,,,,,,,,264.4633155000047,None,267.53048170002876,268.029970899981,248.4571874999674,v,0,2.03406089998316,267.53048170002876,None,250.500503999996,,,,,,,,,1,1,1,1,1,2024_Aug_06_1032,FERT_140222,2021.2.3,60.0375955420383,
,,,stimControl/trialOrder_ver-1_block-2.xlsx,AF14_Neutral_Fear11.png,FacesImagesToUse/,AF14_Neutral_Fear11.png,FacesImagesToUse/AF14_Neutral_Fear11.png,AM05,fear,None,2,0.013899244,2,c,,,,,0,1,1,1,0,1,1,1,,,,,,,,,,,,,,,,,,,,,,,,,,,,,,,,,,,270.61380789999384,271.11323379998794,251.53940639999928,c,1,2.70817930001067,270.61380789999384,None,254.26584769994952,,,,,,,,,1,1,1,1,1,2024_Aug_06_1032,FERT_140222,2021.2.3,60.0375955420383,
,,,stimControl/trialOrder_ver-1_block-2.xlsx,AM13_Neutral_Happy03.png,FacesImagesToUse/,AM13_Neutral_Happy03.png,FacesImagesToUse/AM13_Neutral_Happy03.png,AF13,happy,None,2,0.014532037,3,v,,,,,0,1,1,1,0,2,2,2,,,,,,,,,,,,,,,,,,,,,,,,,,,,,,,,,,,274.38056150003104,274.8799666999839,255.30406999995466,m,0,3.743508599989582,274.38056150003104,None,259.06666739995126,,,,,,,,,1,1,1,1,1,2024_Aug_06_1032,FERT_140222,2021.2.3,60.0375955420383,
,,,stimControl/trialOrder_ver-1_block-2.xlsx,AM11_Neutral_Anger03.png,FacesImagesToUse/,AM11_Neutral_Anger03.png,FacesImagesToUse/AM11_Neutral_Anger03.png,AM05,anger,None,2,0.024453956,4,z,,,,,0,1,1,1,0,3,3,3,,,,,,,,,,,,,,,,,,,,,,,,,,,,,,,,,,,279.18043459998444,279.680158400035,260.1053566999617,m,0,1.4211228999774903,279.18043459998444,None,261.54884889995446,,,,,,,,,1,1,1,1,1,2024_Aug_06_1032,FERT_140222,2021.2.3,60.0375955420383,
,,,stimControl/trialOrder_ver-1_block-2.xlsx,AM13_Neutral_Fear06.png,FacesImagesToUse/,AM13_Neutral_Fear06.png,FacesImagesToUse/AM13_Neutral_Fear06.png,AM11,fear,None,2,0.046445745,5,c,,,,,0,1,1,1,0,4,4,4,,,,,,,,,,,,,,,,,,,,,,,,,,,,,,,,,,,281.6633801999851,282.162673200015,262.5865066999686,m,0,1.3840773000265472,281.6633801999851,None,263.98252829996636,,,,,,,,,1,1,1,1,1,2024_Aug_06_1032,FERT_140222,2021.2.3,60.0375955420383,
,,,stimControl/trialOrder_ver-1_block-2.xlsx,AF14_Neutral_Fear08.png,FacesImagesToUse/,AF14_Neutral_Fear08.png,FacesImagesToUse/AF14_Neutral_Fear08.png,AF01,fear,None,2,0.067061499,6,c,,,,,0,1,1,1,0,5,5,5,,,,,,,,,,,,,,,,,,,,,,,,,,,,,,,,,,,284.09629469999345,284.5965130000259,265.0200435000006,c,1,3.6674205000163056,284.09629469999345,None,268.6999177999678,,,,,,,,,1,1,1,1,1,2024_Aug_06_1032,FERT_140222,2021.2.3,60.0375955420383,
,,,stimControl/trialOrder_ver-1_block-2.xlsx,AF14_Neutral_Anger10.png,FacesImagesToUse/,AF14_Neutral_Anger10.png,FacesImagesToUse/AF14_Neutral_Anger10.png,AM05,anger,None,2,0.07146342,7,z,,,,,0,1,1,1,0,6,6,6,,,,,,,,,,,,,,,,,,,,,,,,,,,,,,,,,,,288.81360280001536,289.3128200999927,269.73733370000264,z,1,1.2774646999896504,288.81360280001536,None,271.03257819998544,,,,,,,,,1,1,1,1,1,2024_Aug_06_1032,FERT_140222,2021.2.3,60.0375955420383,
,,,stimControl/trialOrder_ver-1_block-2.xlsx,AF01_Neutral_Fear05.png,FacesImagesToUse/,AF01_Neutral_Fear05.png,FacesImagesToUse/AF01_Neutral_Fear05.png,AF13,fear,None,2,0.07198348,8,c,,,,,0,1,1,1,0,7,7,7,,,,,,,,,,,,,,,,,,,,,,,,,,,,,,,,,,,291.1303576999926,291.6302727999864,272.06895230000373,v,0,2.1668731999816373,291.1303576999926,None,274.23208230000455,,,,,,,,,1,1,1,1,1,2024_Aug_06_1032,FERT_140222,2021.2.3,60.0375955420383,
,,,stimControl/trialOrder_ver-1_block-2.xlsx,AM11_Neutral_Anger08.png,FacesImagesToUse/,AM11_Neutral_Anger08.png,FacesImagesToUse/AM11_Neutral_Anger08.png,AM05,anger,None,2,0.072365015,9,z,,,,,0,1,1,1,0,8,8,8,,,,,,,,,,,,,,,,,,,,,,,,,,,,,,,,,,,294.3464063000283,294.846247199981,275.27034689998254,z,1,2.23692709999159,294.3464063000283,None,277.5337311999756,,,,,,,,,1,1,1,1,1,2024_Aug_06_1032,FERT_140222,2021.2.3,60.0375955420383,
,,,stimControl/trialOrder_ver-1_block-2.xlsx,AM13_Neutral_Surprise05.png,FacesImagesToUse/,AM13_Neutral_Surprise05.png,FacesImagesToUse/AM13_Neutral_Surprise05.png,AM05,surprise,None,2,0.075761896,10,n,,,,,0,1,1,1,0,9,9,9,,,,,,,,,,,,,,,,,,,,,,,,,,,,,,,,,,,297.6464603000204,298.1464593000128,278.57009549997747,n,1,2.2082634000107646,297.6464603000204,None,280.79045380000025,,,,,,,,,1,1,1,1,1,2024_Aug_06_1032,FERT_140222,2021.2.3,60.0375955420383,
,,,stimControl/trialOrder_ver-1_block-2.xlsx,AM11_Neutral_Sad10.png,FacesImagesToUse/,AM11_Neutral_Sad10.png,FacesImagesToUse/AM11_Neutral_Sad10.png,AM05,sad,None,2,0.08240656,11,b,,,,,0,1,1,1,0,10,10,10,,,,,,,,,,,,,,,,,,,,,,,,,,,,,,,,,,,300.89651580003556,301.3960978999967,281.8173428999726,c,0,2.337968899984844,300.89651580003556,None,284.1833362999605,,,,,,,,,1,1,1,1,1,2024_Aug_06_1032,FERT_140222,2021.2.3,60.0375955420383,
,,,stimControl/trialOrder_ver-1_block-2.xlsx,AF14_Neutral_Anger11.png,FacesImagesToUse/,AF14_Neutral_Anger11.png,FacesImagesToUse/AF14_Neutral_Anger11.png,AF13,anger,None,2,0.088802435,12,z,,,,,0,1,1,1,0,11,11,11,,,,,,,,,,,,,,,,,,,,,,,,,,,,,,,,,,,304.2969298000098,304.79642899998,285.2224225999671,z,1,2.0480793999740854,304.2969298000098,None,287.2820799999754,,,,,,,,,1,1,1,1,1,2024_Aug_06_1032,FERT_140222,2021.2.3,60.0375955420383,
,,,stimControl/trialOrder_ver-1_block-2.xlsx,AF01_Neutral_Disgust07.png,FacesImagesToUse/,AF01_Neutral_Disgust07.png,FacesImagesToUse/AF01_Neutral_Disgust07.png,AF01,disgust,None,2,0.095898807,13,x,,,,,0,1,1,1,0,12,12,12,,,,,,,,,,,,,,,,,,,,,,,,,,,,,,,,,,,307.39659970003413,307.8963096999796,288.32112089998554,x,1,1.959858999995049,307.39659970003413,None,290.298907599994,,,,,,,,,1,1,1,1,1,2024_Aug_06_1032,FERT_140222,2021.2.3,60.0375955420383,
,,,stimControl/trialOrder_ver-1_block-2.xlsx,AM11_Neutral_Neutral11.png,FacesImagesToUse/,AM11_Neutral_Neutral11.png,FacesImagesToUse/AM11_Neutral_Neutral11.png,AF13,neutral,None,2,0.096697989,14,m,,,,,0,1,1,1,0,13,13,13,,,,,,,,,,,,,,,,,,,,,,,,,,,,,,,,,,,310.37988409999525,310.8796208000276,291.3153674999485,m,1,1.1324139999924228,310.37988409999525,None,292.44830509996973,,,,,,,,,1,1,1,1,1,2024_Aug_06_1032,FERT_140222,2021.2.3,60.0375955420383,
,,,stimControl/trialOrder_ver-1_block-2.xlsx,AF01_Neutral_Disgust03.png,FacesImagesToUse/,AF01_Neutral_Disgust03.png,FacesImagesToUse/AF01_Neutral_Disgust03.png,AM11,disgust,None,2,0.102480687,15,x,,,,,0,1,1,1,0,14,14,14,,,,,,,,,,,,,,,,,,,,,,,,,,,,,,,,,,,312.5629469000269,313.0626675999956,293.4855792999733,m,0,1.3984196000383236,312.5629469000269,None,294.89868419995764,,,,,,,,,1,1,1,1,1,2024_Aug_06_1032,FERT_140222,2021.2.3,60.0375955420383,
,,,stimControl/trialOrder_ver-1_block-2.xlsx,AF01_Neutral_Sad11.png,FacesImagesToUse/,AF01_Neutral_Sad11.png,FacesImagesToUse/AF01_Neutral_Sad11.png,AM05,sad,None,2,0.109968703,16,b,,,,,0,1,1,1,0,15,15,15,,,,,,,,,,,,,,,,,,,,,,,,,,,,,,,,,,,314.9969332999899,315.4959905000287,295.9198080999777,x,0,1.8751602000556886,314.9969332999899,None,297.81666019995464,,,,,,,,,1,1,1,1,1,2024_Aug_06_1032,FERT_140222,2021.2.3,60.0375955420383,
,,,stimControl/trialOrder_ver-1_block-2.xlsx,AM11_Neutral_Surprise02.png,FacesImagesToUse/,AM11_Neutral_Surprise02.png,FacesImagesToUse/AM11_Neutral_Surprise02.png,AM11,surprise,None,2,0.118486361,17,n,,,,,0,1,1,1,0,16,16,16,,,,,,,,,,,,,,,,,,,,,,,,,,,,,,,,,,,317.92960899998434,318.42999590002,298.8540648999624,m,0,1.4232210000045598,317.92960899998434,None,300.2991576999775,,,,,,,,,1,1,1,1,1,2024_Aug_06_1032,FERT_140222,2021.2.3,60.0375955420383,
,,,stimControl/trialOrder_ver-1_block-2.xlsx,AM13_Neutral_Disgust04.png,FacesImagesToUse/,AM13_Neutral_Disgust04.png,FacesImagesToUse/AM13_Neutral_Disgust04.png,AF01,disgust,None,2,0.120516797,18,x,,,,,0,1,1,1,0,17,17,17,,,,,,,,,,,,,,,,,,,,,,,,,,,,,,,,,,,320.3968344000168,320.8958903999883,301.3349860999733,m,0,1.0385152999660932,320.3968344000168,None,302.38254479999887,,,,,,,,,1,1,1,1,1,2024_Aug_06_1032,FERT_140222,2021.2.3,60.0375955420383,
,,,stimControl/trialOrder_ver-1_block-2.xlsx,AF14_Neutral_Disgust05.png,FacesImagesToUse/,AF14_Neutral_Disgust05.png,FacesImagesToUse/AF14_Neutral_Disgust05.png,AM11,disgust,None,2,0.128736277,19,x,,,,,0,1,1,1,0,18,18,18,,,,,,,,,,,,,,,,,,,,,,,,,,,,,,,,,,,322.49666130001424,322.99589750001905,303.41887599998154,m,0,1.1057775999652222,322.49666130001424,None,304.54991359997075,,,,,,,,,1,1,1,1,1,2024_Aug_06_1032,FERT_140222,2021.2.3,60.0375955420383,
,,,stimControl/trialOrder_ver-1_block-2.xlsx,AM13_Neutral_Sad02.png,FacesImagesToUse/,AM13_Neutral_Sad02.png,FacesImagesToUse/AM13_Neutral_Sad02.png,AF01,sad,None,2,0.145868482,20,b,,,,,0,1,1,1,0,19,19,19,,,,,,,,,,,,,,,,,,,,,,,,,,,,,,,,,,,324.6468877000152,325.14585480000824,305.584771099966,m,0,1.21522620000178,324.6468877000152,None,306.79853229998844,,,,,,,,,1,1,1,1,1,2024_Aug_06_1032,FERT_140222,2021.2.3,60.0375955420383,
,,,stimControl/trialOrder_ver-1_block-2.xlsx,AM11_Neutral_Sad03.png,FacesImagesToUse/,AM11_Neutral_Sad03.png,FacesImagesToUse/AM11_Neutral_Sad03.png,AF01,sad,None,2,0.161842831,21,b,,,,,0,1,1,1,0,20,20,20,,,,,,,,,,,,,,,,,,,,,,,,,,,,,,,,,,,326.91321269999025,327.4123722999939,307.8360637999722,m,0,1.741918399988208,326.91321269999025,None,309.59919469995657,,,,,,,,,1,1,1,1,1,2024_Aug_06_1032,FERT_140222,2021.2.3,60.0375955420383,
,,,stimControl/trialOrder_ver-1_block-2.xlsx,AF01_Neutral_Disgust10.png,FacesImagesToUse/,AF01_Neutral_Disgust10.png,FacesImagesToUse/AF01_Neutral_Disgust10.png,AF01,disgust,None,2,0.195404018,22,x,,,,,0,1,1,1,0,21,21,21,,,,,,,,,,,,,,,,,,,,,,,,,,,,,,,,,,,329.71285790001275,330.21284210000886,310.6364837999572,x,1,1.6440058999578469,329.71285790001275,None,312.2980961999856,,,,,,,,,1,1,1,1,1,2024_Aug_06_1032,FERT_140222,2021.2.3,60.0375955420383,
,,,stimControl/trialOrder_ver-1_block-2.xlsx,AM13_Neutral_Sad05.png,FacesImagesToUse/,AM13_Neutral_Sad05.png,FacesImagesToUse/AM13_Neutral_Sad05.png,AF13,sad,None,2,0.206572638,23,b,,,,,0,1,1,1,0,22,22,22,,,,,,,,,,,,,,,,,,,,,,,,,,,,,,,,,,,332.4130100000184,332.91280570003437,313.338336899993,b,1,2.911494700005278,332.4130100000184,None,316.26561089995084,,,,,,,,,1,1,1,1,1,2024_Aug_06_1032,FERT_140222,2021.2.3,60.0375955420383,
,,,stimControl/trialOrder_ver-1_block-2.xlsx,AM11_Neutral_Happy08.png,FacesImagesToUse/,AM11_Neutral_Happy08.png,FacesImagesToUse/AM11_Neutral_Happy08.png,AM05,happy,None,2,0.212853791,24,v,,,,,0,1,1,1,0,23,23,23,,,,,,,,,,,,,,,,,,,,,,,,,,,,,,,,,,,336.3795186000061,336.8789895999944,317.3035296999733,v,1,1.8118002999690361,336.3795186000061,None,319.13188069994794,,,,,,,,,1,1,1,1,1,2024_Aug_06_1032,FERT_140222,2021.2.3,60.0375955420383,
,,,stimControl/trialOrder_ver-1_block-2.xlsx,AF14_Neutral_Neutral11.png,FacesImagesToUse/,AF14_Neutral_Neutral11.png,FacesImagesToUse/AF14_Neutral_Neutral11.png,AM05,neutral,None,2,0.222809084,25,m,,,,,0,1,1,1,0,24,24,24,,,,,,,,,,,,,,,,,,,,,,,,,,,,,,,,,,,339.2465105000301,339.7459414000041,320.16968110000016,m,1,1.6318965000100434,339.2465105000301,None,321.8154646999901,,,,,,,,,1,1,1,1,1,2024_Aug_06_1032,FERT_140222,2021.2.3,60.0375955420383,
,,,stimControl/trialOrder_ver-1_block-2.xlsx,AM11_Neutral_Surprise03.png,FacesImagesToUse/,AM11_Neutral_Surprise03.png,FacesImagesToUse/AM11_Neutral_Surprise03.png,AM11,surprise,None,2,0.250566763,26,n,,,,,0,1,1,1,0,25,25,25,,,,,,,,,,,,,,,,,,,,,,,,,,,,,,,,,,,341.9295136000146,342.4291808999842,322.85399779997533,n,1,2.32790129998466,341.9295136000146,None,325.2001024999772,,,,,,,,,1,1,1,1,1,2024_Aug_06_1032,FERT_140222,2021.2.3,60.0375955420383,
,,,stimControl/trialOrder_ver-1_block-2.xlsx,AF01_Neutral_Happy03.png,FacesImagesToUse/,AF01_Neutral_Happy03.png,FacesImagesToUse/AF01_Neutral_Happy03.png,AM05,happy,None,2,0.252186473,27,v,,,,,0,1,1,1,0,26,26,26,,,,,,,,,,,,,,,,,,,,,,,,,,,,,,,,,,,345.3132171999896,345.8121931999922,326.23530319996644,v,1,1.8958913999958895,345.3132171999896,None,328.1484522999963,,,,,,,,,1,1,1,1,1,2024_Aug_06_1032,FERT_140222,2021.2.3,60.0375955420383,
,,,stimControl/trialOrder_ver-1_block-2.xlsx,AM13_Neutral_Happy06.png,FacesImagesToUse/,AM13_Neutral_Happy06.png,FacesImagesToUse/AM13_Neutral_Happy06.png,AF13,happy,None,2,0.256274518,28,v,,,,,0,1,1,1,0,27,27,27,,,,,,,,,,,,,,,,,,,,,,,,,,,,,,,,,,,348.2631859999965,348.76246709999396,329.1879560999805,v,1,1.581577900040429,348.2631859999965,None,330.781749399961,,,,,,,,,1,1,1,1,1,2024_Aug_06_1032,FERT_140222,2021.2.3,60.0375955420383,
,,,stimControl/trialOrder_ver-1_block-2.xlsx,AM11_Neutral_Surprise06.png,FacesImagesToUse/,AM11_Neutral_Surprise06.png,FacesImagesToUse/AM11_Neutral_Surprise06.png,AF01,surprise,None,2,0.260601342,29,n,,,,,0,1,1,1,0,28,28,28,,,,,,,,,,,,,,,,,,,,,,,,,,,,,,,,,,,350.8961229000124,351.39569330000086,331.8202759999549,n,1,1.4959230999811552,350.8961229000124,None,333.3315417999984,,,,,,,,,1,1,1,1,1,2024_Aug_06_1032,FERT_140222,2021.2.3,60.0375955420383,
,,,stimControl/trialOrder_ver-1_block-2.xlsx,AF01_Neutral_Surprise07.png,FacesImagesToUse/,AF01_Neutral_Surprise07.png,FacesImagesToUse/AF01_Neutral_Surprise07.png,AF01,surprise,None,2,0.278293803,30,n,,,,,0,1,1,1,0,29,29,29,,,,,,,,,,,,,,,,,,,,,,,,,,,,,,,,,,,353.4296405999921,353.92920429998776,334.36649970000144,n,1,4.396482500014827,353.4296405999921,None,338.76559429999907,,,,,,,,,1,1,1,1,1,2024_Aug_06_1032,FERT_140222,2021.2.3,60.0375955420383,
,,,stimControl/trialOrder_ver-1_block-2.xlsx,AF14_Neutral_Happy05.png,FacesImagesToUse/,AF14_Neutral_Happy05.png,FacesImagesToUse/AF14_Neutral_Happy05.png,AF01,happy,None,2,0.296824166,31,v,,,,,0,1,1,1,0,30,30,30,,,,,,,,,,,,,,,,,,,,,,,,,,,,,,,,,,,358.88202120002825,359.38285250001354,339.80494299996644,z,0,3.105343300034292,358.88202120002825,None,342.93405260000145,,,,,,,,,1,1,1,1,1,2024_Aug_06_1032,FERT_140222,2021.2.3,60.0375955420383,
,,,stimControl/trialOrder_ver-1_block-2.xlsx,AF01_Neutral_Disgust02.png,FacesImagesToUse/,AF01_Neutral_Disgust02.png,FacesImagesToUse/AF01_Neutral_Disgust02.png,AF01,disgust,None,2,0.31535903,32,x,,,,,0,1,1,1,0,31,31,31,,,,,,,,,,,,,,,,,,,,,,,,,,,,,,,,,,,363.0328617999912,363.5321838000091,343.9576356000034,m,0,1.3766453000134788,363.0328617999912,None,345.3513370999717,,,,,,,,,1,1,1,1,1,2024_Aug_06_1032,FERT_140222,2021.2.3,60.0375955420383,
,,,stimControl/trialOrder_ver-1_block-2.xlsx,AF14_Neutral_Fear09.png,FacesImagesToUse/,AF14_Neutral_Fear09.png,FacesImagesToUse/AF14_Neutral_Fear09.png,AF13,fear,None,2,0.318340283,33,c,,,,,0,1,1,1,0,32,32,32,,,,,,,,,,,,,,,,,,,,,,,,,,,,,,,,,,,365.4484443999827,365.9491747000138,346.38790689996677,c,1,2.749868599988986,365.4484443999827,None,349.1480742999702,,,,,,,,,1,1,1,1,1,2024_Aug_06_1032,FERT_140222,2021.2.3,60.0375955420383,
,,,stimControl/trialOrder_ver-1_block-2.xlsx,AM11_Neutral_Anger10.png,FacesImagesToUse/,AM11_Neutral_Anger10.png,FacesImagesToUse/AM11_Neutral_Anger10.png,AF13,anger,None,2,0.321480229,34,z,,,,,0,1,1,1,0,33,33,33,,,,,,,,,,,,,,,,,,,,,,,,,,,,,,,,,,,369.262325800024,369.7620462999912,350.18687629996566,z,1,1.1892219000146724,369.262325800024,None,351.39807830000063,,,,,,,,,1,1,1,1,1,2024_Aug_06_1032,FERT_140222,2021.2.3,60.0375955420383,
,,,stimControl/trialOrder_ver-1_block-2.xlsx,AM13_Neutral_Fear07.png,FacesImagesToUse/,AM13_Neutral_Fear07.png,FacesImagesToUse/AM13_Neutral_Fear07.png,AM11,fear,None,2,0.350381597,35,c,,,,,0,1,1,1,0,34,34,34,,,,,,,,,,,,,,,,,,,,,,,,,,,,,,,,,,,371.51284849998774,372.01197190000676,352.4368319999776,x,0,9.2843630000134,371.51284849998774,None,361.748679399956,,,,,,,,,1,1,1,1,1,2024_Aug_06_1032,FERT_140222,2021.2.3,60.0375955420383,
,,,stimControl/trialOrder_ver-1_block-2.xlsx,AF14_Neutral_Fear02.png,FacesImagesToUse/,AF14_Neutral_Fear02.png,FacesImagesToUse/AF14_Neutral_Fear02.png,AM11,fear,None,2,0.353839268,36,c,,,,,0,1,1,1,0,35,35,35,,,,,,,,,,,,,,,,,,,,,,,,,,,,,,,,,,,381.86237350001466,382.3627630000119,362.7860204000026,m,0,1.3759775000507943,381.86237350001466,None,364.18152299994836,,,,,,,,,1,1,1,1,1,2024_Aug_06_1032,FERT_140222,2021.2.3,60.0375955420383,
,,,stimControl/trialOrder_ver-1_block-2.xlsx,AF01_Neutral_Neutral11.png,FacesImagesToUse/,AF01_Neutral_Neutral11.png,FacesImagesToUse/AF01_Neutral_Neutral11.png,AM11,neutral,None,2,0.356410495,37,m,,,,,0,1,1,1,0,36,36,36,,,,,,,,,,,,,,,,,,,,,,,,,,,,,,,,,,,384.2790075999801,384.7786795999855,365.2157957999734,m,1,1.1228506999905221,384.2790075999801,None,366.34807189996354,,,,,,,,,1,1,1,1,1,2024_Aug_06_1032,FERT_140222,2021.2.3,60.0375955420383,
,,,stimControl/trialOrder_ver-1_block-2.xlsx,AF01_Neutral_Surprise02.png,FacesImagesToUse/,AF01_Neutral_Surprise02.png,FacesImagesToUse/AF01_Neutral_Surprise02.png,AF13,surprise,None,2,0.361481489,38,n,,,,,0,1,1,1,0,37,37,37,,,,,,,,,,,,,,,,,,,,,,,,,,,,,,,,,,,386.46226210001623,386.96195470000384,367.38750049995724,m,0,1.0506894999998622,386.46226210001623,None,368.4487204999896,,,,,,,,,1,1,1,1,1,2024_Aug_06_1032,FERT_140222,2021.2.3,60.0375955420383,
,,,stimControl/trialOrder_ver-1_block-2.xlsx,AM13_Neutral_Fear09.png,FacesImagesToUse/,AM13_Neutral_Fear09.png,FacesImagesToUse/AM13_Neutral_Fear09.png,AF01,fear,None,2,0.37393395,39,c,,,,,0,1,1,1,0,38,38,38,,,,,,,,,,,,,,,,,,,,,,,,,,,,,,,,,,,388.5620947999996,389.0616097000311,369.4886239999905,x,0,1.8318643000093289,388.5620947999996,None,371.33167039998807,,,,,,,,,1,1,1,1,1,2024_Aug_06_1032,FERT_140222,2021.2.3,60.0375955420383,
,,,stimControl/trialOrder_ver-1_block-2.xlsx,AM13_Neutral_Sad10.png,FacesImagesToUse/,AM13_Neutral_Sad10.png,FacesImagesToUse/AM13_Neutral_Sad10.png,AF13,sad,None,2,0.379078283,40,b,,,,,0,1,1,1,0,39,39,39,,,,,,,,,,,,,,,,,,,,,,,,,,,,,,,,,,,391.4456286000204,391.9462388000102,372.3698132999707,b,1,1.8756591000128537,391.4456286000204,None,374.26494109997293,,,,,,,,,1,1,1,1,1,2024_Aug_06_1032,FERT_140222,2021.2.3,60.0375955420383,
,,,stimControl/trialOrder_ver-1_block-2.xlsx,AF14_Neutral_Anger03.png,FacesImagesToUse/,AF14_Neutral_Anger03.png,FacesImagesToUse/AF14_Neutral_Anger03.png,AF13,anger,None,2,0.401759394,41,z,,,,,0,1,1,1,0,40,40,40,,,,,,,,,,,,,,,,,,,,,,,,,,,,,,,,,,,394.3787927000085,394.87852189998375,375.30515149998246,m,0,1.4731061999918893,394.3787927000085,None,376.7984459999716,,,,,,,,,1,1,1,1,1,2024_Aug_06_1032,FERT_140222,2021.2.3,60.0375955420383,
,,,stimControl/trialOrder_ver-1_block-2.xlsx,AM13_Neutral_Anger03.png,FacesImagesToUse/,AM13_Neutral_Anger03.png,FacesImagesToUse/AM13_Neutral_Anger03.png,AM11,anger,None,2,0.426367861,42,z,,,,,0,1,1,1,0,41,41,41,,,,,,,,,,,,,,,,,,,,,,,,,,,,,,,,,,,396.91228400002,397.41172040003585,377.83709049999015,m,0,2.593362600018736,396.91228400002,None,380.4476208999986,,,,,,,,,1,1,1,1,1,2024_Aug_06_1032,FERT_140222,2021.2.3,60.0375955420383,
,,,stimControl/trialOrder_ver-1_block-2.xlsx,AM13_Neutral_Disgust02.png,FacesImagesToUse/,AM13_Neutral_Disgust02.png,FacesImagesToUse/AM13_Neutral_Disgust02.png,AM11,disgust,None,2,0.444261181,43,x,,,,,0,1,1,1,0,42,42,42,,,,,,,,,,,,,,,,,,,,,,,,,,,,,,,,,,,400.5621200000169,401.0617365000071,381.4854334999691,m,0,1.044711800001096,400.5621200000169,None,382.54804949997924,,,,,,,,,1,1,1,1,1,2024_Aug_06_1032,FERT_140222,2021.2.3,60.0375955420383,
,,,stimControl/trialOrder_ver-1_block-2.xlsx,AF01_Neutral_Anger02.png,FacesImagesToUse/,AF01_Neutral_Anger02.png,FacesImagesToUse/AF01_Neutral_Anger02.png,AF13,anger,None,2,0.496592105,44,z,,,,,0,1,1,1,0,43,43,43,,,,,,,,,,,,,,,,,,,,,,,,,,,,,,,,,,,402.66199980000965,403.1618283999851,383.5872049999889,m,0,1.1020982000045478,402.66199980000965,None,384.7140408999985,,,,,,,,,1,1,1,1,1,2024_Aug_06_1032,FERT_140222,2021.2.3,60.0375955420383,
,,,stimControl/trialOrder_ver-1_block-2.xlsx,AF14_Neutral_Happy08.png,FacesImagesToUse/,AF14_Neutral_Happy08.png,FacesImagesToUse/AF14_Neutral_Happy08.png,AF01,happy,None,2,0.503288702,45,v,,,,,0,1,1,1,0,44,44,44,,,,,,,,,,,,,,,,,,,,,,,,,,,,,,,,,,,404.8288260999834,405.32824910001364,385.75124949996825,v,1,1.8749272999702953,404.8288260999834,None,387.8179818999488,,,,,,,,,1,1,1,1,1,2024_Aug_06_1032,FERT_140222,2021.2.3,60.0375955420383,
,,,stimControl/trialOrder_ver-1_block-2.xlsx,AM11_Neutral_Sad07.png,FacesImagesToUse/,AM11_Neutral_Sad07.png,FacesImagesToUse/AM11_Neutral_Sad07.png,AF01,sad,None,2,0.524404014,46,b,,,,,0,1,1,1,0,45,45,45,,,,,,,,,,,,,,,,,,,,,,,,,,,,,,,,,,,407.92870859999675,408.42856139998185,388.8467503999709,b,1,2.984160599997267,407.92870859999675,None,391.84708819998195,,,,,,,,,1,1,1,1,1,2024_Aug_06_1032,FERT_140222,2021.2.3,60.0375955420383,
,,,stimControl/trialOrder_ver-1_block-2.xlsx,AF14_Neutral_Happy09.png,FacesImagesToUse/,AF14_Neutral_Happy09.png,FacesImagesToUse/AF14_Neutral_Happy09.png,AF13,happy,None,2,0.537234657,47,v,,,,,0,1,1,1,0,46,46,46,,,,,,,,,,,,,,,,,,,,,,,,,,,,,,,,,,,411.96179869998014,412.46164290001616,392.8848701999523,v,1,1.8797690999927,411.96179869998014,None,394.7812367999577,,,,,,,,,1,1,1,1,1,2024_Aug_06_1032,FERT_140222,2021.2.3,60.0375955420383,
,,,stimControl/trialOrder_ver-1_block-2.xlsx,AF01_Neutral_Sad07.png,FacesImagesToUse/,AF01_Neutral_Sad07.png,FacesImagesToUse/AF01_Neutral_Sad07.png,AM05,sad,None,2,0.542575293,48,b,,,,,0,1,1,1,0,47,47,47,,,,,,,,,,,,,,,,,,,,,,,,,,,,,,,,,,,414.89540789998136,415.39498360001016,395.8193013999844,c,0,3.0341351999668404,414.89540789998136,None,398.86394729994936,,,,,,,,,1,1,1,1,1,2024_Aug_06_1032,FERT_140222,2021.2.3,60.0375955420383,
,,,stimControl/trialOrder_ver-1_block-2.xlsx,AM13_Neutral_Anger09.png,FacesImagesToUse/,AM13_Neutral_Anger09.png,FacesImagesToUse/AM13_Neutral_Anger09.png,AF13,anger,None,2,0.54695935,49,z,,,,,0,1,1,1,0,48,48,48,,,,,,,,,,,,,,,,,,,,,,,,,,,,,,,,,,,418.9787990000332,419.4783635000349,399.9022334999754,z,1,2.8480710000148974,418.9787990000332,None,402.94931179995183,,,,,,,,,1,1,1,1,1,2024_Aug_06_1032,FERT_140222,2021.2.3,60.0375955420383,
,,,stimControl/trialOrder_ver-1_block-2.xlsx,AM13_Neutral_Disgust03.png,FacesImagesToUse/,AM13_Neutral_Disgust03.png,FacesImagesToUse/AM13_Neutral_Disgust03.png,AF13,disgust,None,2,0.552125338,50,x,,,,,0,1,1,1,0,49,49,49,,,,,,,,,,,,,,,,,,,,,,,,,,,,,,,,,,,423.045377500006,423.5448280000128,403.9761953999987,m,0,1.1127598999883048,423.045377500006,None,405.0980315999477,,,,,,,,,1,1,1,1,1,2024_Aug_06_1032,FERT_140222,2021.2.3,60.0375955420383,
,,,stimControl/trialOrder_ver-1_block-2.xlsx,AF14_Neutral_Sad06.png,FacesImagesToUse/,AF14_Neutral_Sad06.png,FacesImagesToUse/AF14_Neutral_Sad06.png,AF01,sad,None,2,0.560904611,51,b,,,,,0,1,1,1,0,50,50,50,,,,,,,,,,,,,,,,,,,,,,,,,,,,,,,,,,,425.2118568000151,425.7112821000046,406.13753069995437,m,0,1.266771599999629,425.2118568000151,None,407.41455419996055,,,,,,,,,1,1,1,1,1,2024_Aug_06_1032,FERT_140222,2021.2.3,60.0375955420383,
,,,stimControl/trialOrder_ver-1_block-2.xlsx,AF14_Neutral_Happy04.png,FacesImagesToUse/,AF14_Neutral_Happy04.png,FacesImagesToUse/AF14_Neutral_Happy04.png,AM11,happy,None,2,0.580541679,52,v,,,,,0,1,1,1,0,51,51,51,,,,,,,,,,,,,,,,,,,,,,,,,,,,,,,,,,,427.52847419999307,428.0280441000359,408.45297479996225,v,1,3.904380299965851,427.52847419999307,None,412.38053189998027,,,,,,,,,1,1,1,1,1,2024_Aug_06_1032,FERT_140222,2021.2.3,60.0375955420383,
,,,stimControl/trialOrder_ver-1_block-2.xlsx,AM11_Neutral_Happy11.png,FacesImagesToUse/,AM11_Neutral_Happy11.png,FacesImagesToUse/AM11_Neutral_Happy11.png,AM05,happy,None,2,0.592465012,53,v,,,,,0,1,1,1,0,52,52,52,,,,,,,,,,,,,,,,,,,,,,,,,,,,,,,,,,,432.4783627000288,432.97796490002656,413.41564500000095,v,1,2.0030845000292175,432.4783627000288,None,415.43084389995784,,,,,,,,,1,1,1,1,1,2024_Aug_06_1032,FERT_140222,2021.2.3,60.0375955420383,
,,,stimControl/trialOrder_ver-1_block-2.xlsx,AF01_Neutral_Disgust05.png,FacesImagesToUse/,AF01_Neutral_Disgust05.png,FacesImagesToUse/AF01_Neutral_Disgust05.png,AM11,disgust,None,2,0.629060784,54,x,,,,,0,1,1,1,0,53,53,53,,,,,,,,,,,,,,,,,,,,,,,,,,,,,,,,,,,435.5452267000219,436.0446630999795,416.46954570000526,m,0,1.5393917000037618,435.5452267000219,None,418.0309158999589,,,,,,,,,1,1,1,1,1,2024_Aug_06_1032,FERT_140222,2021.2.3,60.0375955420383,
,,,stimControl/trialOrder_ver-1_block-2.xlsx,AF01_Neutral_Sad04.png,FacesImagesToUse/,AF01_Neutral_Sad04.png,FacesImagesToUse/AF01_Neutral_Sad04.png,AF13,sad,None,2,0.636105941,55,b,,,,,0,1,1,1,0,54,54,54,,,,,,,,,,,,,,,,,,,,,,,,,,,,,,,,,,,438.12839899997925,438.62824039999396,419.05609299999196,m,0,1.141848100000061,438.12839899997925,None,420.21411010000156,,,,,,,,,1,1,1,1,1,2024_Aug_06_1032,FERT_140222,2021.2.3,60.0375955420383,
,,,stimControl/trialOrder_ver-1_block-2.xlsx,AM11_Neutral_Disgust09.png,FacesImagesToUse/,AM11_Neutral_Disgust09.png,FacesImagesToUse/AM11_Neutral_Disgust09.png,AF13,disgust,None,2,0.67914701,56,x,,,,,0,1,1,1,0,55,55,55,,,,,,,,,,,,,,,,,,,,,,,,,,,,,,,,,,,440.3282605999848,440.82793780002976,421.2525898999884,x,1,1.6805077000171877,440.3282605999848,None,422.9471626000013,,,,,,,,,1,1,1,1,1,2024_Aug_06_1032,FERT_140222,2021.2.3,60.0375955420383,
,,,stimControl/trialOrder_ver-1_block-2.xlsx,AF14_Neutral_Surprise05.png,FacesImagesToUse/,AF14_Neutral_Surprise05.png,FacesImagesToUse/AF14_Neutral_Surprise05.png,AM11,surprise,None,2,0.690129312,57,n,,,,,0,1,1,1,0,56,56,56,,,,,,,,,,,,,,,,,,,,,,,,,,,,,,,,,,,443.06160860002274,443.56071340001654,423.9869748999481,n,1,1.170176799991168,443.06160860002274,None,425.1803864999674,,,,,,,,,1,1,1,1,1,2024_Aug_06_1032,FERT_140222,2021.2.3,60.0375955420383,
,,,stimControl/trialOrder_ver-1_block-2.xlsx,AF01_Neutral_Anger07.png,FacesImagesToUse/,AF01_Neutral_Anger07.png,FacesImagesToUse/AF01_Neutral_Anger07.png,AM11,anger,None,2,0.701015054,58,z,,,,,0,1,1,1,0,57,57,57,,,,,,,,,,,,,,,,,,,,,,,,,,,,,,,,,,,445.2952104000142,445.7943785000243,426.2196363999974,z,1,2.387473399983719,445.2952104000142,None,428.6279776999727,,,,,,,,,1,1,1,1,1,2024_Aug_06_1032,FERT_140222,2021.2.3,60.0375955420383,
,,,stimControl/trialOrder_ver-1_block-2.xlsx,AF14_Neutral_Surprise06.png,FacesImagesToUse/,AF14_Neutral_Surprise06.png,FacesImagesToUse/AF14_Neutral_Surprise06.png,AF13,surprise,None,2,0.708579085,59,n,,,,,0,1,1,1,0,58,58,58,,,,,,,,,,,,,,,,,,,,,,,,,,,,,,,,,,,448.7108287999872,449.2104271000135,429.64508190000197,n,1,1.194138499966357,448.7108287999872,None,430.84637389995623,,,,,,,,,1,1,1,1,1,2024_Aug_06_1032,FERT_140222,2021.2.3,60.0375955420383,
,,,stimControl/trialOrder_ver-1_block-2.xlsx,AM13_Neutral_Happy09.png,FacesImagesToUse/,AM13_Neutral_Happy09.png,FacesImagesToUse/AM13_Neutral_Happy09.png,AF01,happy,None,2,0.710725909,60,v,,,,,0,1,1,1,0,59,59,59,,,,,,,,,,,,,,,,,,,,,,,,,,,,,,,,,,,450.92830959998537,451.42775470000925,431.86588959995424,v,1,1.317395000020042,450.92830959998537,None,433.1802015999565,,,,,,,,,1,1,1,1,1,2024_Aug_06_1032,FERT_140222,2021.2.3,60.0375955420383,
,,,stimControl/trialOrder_ver-1_block-2.xlsx,AM11_Neutral_Surprise04.png,FacesImagesToUse/,AM11_Neutral_Surprise04.png,FacesImagesToUse/AM11_Neutral_Surprise04.png,AM05,surprise,None,2,0.711584346,61,n,,,,,0,1,1,1,0,60,60,60,,,,,,,,,,,,,,,,,,,,,,,,,,,,,,,,,,,453.2783749999944,453.77781549998326,434.20459139999,n,1,1.3159573000157252,453.2783749999944,None,435.52997199998936,,,,,,,,,1,1,1,1,1,2024_Aug_06_1032,FERT_140222,2021.2.3,60.0375955420383,
,,,stimControl/trialOrder_ver-1_block-2.xlsx,AM13_Neutral_Surprise11.png,FacesImagesToUse/,AM13_Neutral_Surprise11.png,FacesImagesToUse/AM13_Neutral_Surprise11.png,AM11,surprise,None,2,0.714795017,62,n,,,,,0,1,1,1,0,61,61,61,,,,,,,,,,,,,,,,,,,,,,,,,,,,,,,,,,,455.64491560001625,456.144650799979,436.56913209997583,n,1,1.0327736000181176,455.64491560001625,None,437.6142265999806,,,,,,,,,1,1,1,1,1,2024_Aug_06_1032,FERT_140222,2021.2.3,60.0375955420383,
,,,stimControl/trialOrder_ver-1_block-2.xlsx,AM11_Neutral_Fear11.png,FacesImagesToUse/,AM11_Neutral_Fear11.png,FacesImagesToUse/AM11_Neutral_Fear11.png,AM05,fear,None,2,0.726260516,63,c,,,,,0,1,1,1,0,62,62,62,,,,,,,,,,,,,,,,,,,,,,,,,,,,,,,,,,,457.7283945999807,458.22779570001876,438.6527563999989,c,1,1.6987293000565842,457.7283945999807,None,440.3640674999915,,,,,,,,,1,1,1,1,1,2024_Aug_06_1032,FERT_140222,2021.2.3,60.0375955420383,
,,,stimControl/trialOrder_ver-1_block-2.xlsx,,,,,,,,,,,,,,,,0,1,1,1,,,,,,,,,,,,,,,,,,,,,,,,,,,,,,,,,,,,,,,,,,,,,,,,459.4440386000206,None,space,2.307162499986589,459.4440386000206,None,440.3643557999749,442.69769939995604,1,1,1,1,1,2024_Aug_06_1032,FERT_140222,2021.2.3,60.0375955420383,
,,,stimControl/trialOrder_ver-1_block-3.xlsx,AM11_Neutral_Fear10.png,FacesImagesToUse/,AM11_Neutral_Fear10.png,FacesImagesToUse/AM11_Neutral_Fear10.png,None,fear,100,3,0.001942487,1,c,,,,,0,2,2,2,0,0,0,0,,,,,,,,,,,,,,,,,,,,,,,,,,,,,,,,,461.77736659999937,None,464.8447343999869,465.3443943000166,445.76897380000446,c,1,3.0408988000126556,464.8447343999869,None,448.83113049995154,,,,,,,,,1,1,1,1,1,2024_Aug_06_1032,FERT_140222,2021.2.3,60.0375955420383,
,,,stimControl/trialOrder_ver-1_block-3.xlsx,AF14_Neutral_Sad11.png,FacesImagesToUse/,AF14_Neutral_Sad11.png,FacesImagesToUse/AF14_Neutral_Sad11.png,None,sad,80,3,0.008547033,2,b,,,,,0,2,2,2,0,1,1,1,,,,,,,,,,,,,,,,,,,,,,,,,,,,,,,,,,,468.94467900000745,469.44425240001874,449.86998619994847,b,1,1.388118599948939,468.94467900000745,None,451.2800210999558,,,,,,,,,1,1,1,1,1,2024_Aug_06_1032,FERT_140222,2021.2.3,60.0375955420383,
,,,stimControl/trialOrder_ver-1_block-3.xlsx,AM11_Neutral_Sad06.png,FacesImagesToUse/,AM11_Neutral_Sad06.png,FacesImagesToUse/AM11_Neutral_Sad06.png,None,sad,50,3,0.021024518,3,b,,,,,0,2,2,2,0,2,2,2,,,,,,,,,,,,,,,,,,,,,,,,,,,,,,,,,,,471.3948528000037,471.89437380002346,452.32003599999007,b,1,1.54878519999329,471.3948528000037,None,453.880508799979,,,,,,,,,1,1,1,1,1,2024_Aug_06_1032,FERT_140222,2021.2.3,60.0375955420383,
,,,stimControl/trialOrder_ver-1_block-3.xlsx,AF01_Neutral_Disgust06.png,FacesImagesToUse/,AF01_Neutral_Disgust06.png,FacesImagesToUse/AF01_Neutral_Disgust06.png,None,disgust,100,3,0.021693654,4,x,,,,,0,2,2,2,0,3,3,3,,,,,,,,,,,,,,,,,,,,,,,,,,,,,,,,,,,473.9944856999791,474.4941091000219,454.91821909998544,m,0,2.281708399998024,473.9944856999791,None,457.37876870000036,,,,,,,,,1,1,1,1,1,2024_Aug_06_1032,FERT_140222,2021.2.3,60.0375955420383,
,,,stimControl/trialOrder_ver-1_block-3.xlsx,AM13_Neutral_Surprise03.png,FacesImagesToUse/,AM13_Neutral_Surprise03.png,FacesImagesToUse/AM13_Neutral_Surprise03.png,None,surprise,50,3,0.029250319,5,n,,,,,0,2,2,2,0,4,4,4,,,,,,,,,,,,,,,,,,,,,,,,,,,,,,,,,,,477.4781363999937,477.9773392000352,458.40668809995987,n,1,2.708509099960793,477.4781363999937,None,461.13023979996797,,,,,,,,,1,1,1,1,1,2024_Aug_06_1032,FERT_140222,2021.2.3,60.0375955420383,
,,,stimControl/trialOrder_ver-1_block-3.xlsx,AM11_Neutral_Disgust08.png,FacesImagesToUse/,AM11_Neutral_Disgust08.png,FacesImagesToUse/AM11_Neutral_Disgust08.png,None,disgust,50,3,0.038734473,6,x,,,,,0,2,2,2,0,5,5,5,,,,,,,,,,,,,,,,,,,,,,,,,,,,,,,,,,,481.2447253999999,481.7442719999817,462.16956309997477,x,1,2.128445999987889,481.2447253999999,None,464.3131633999874,,,,,,,,,1,1,1,1,1,2024_Aug_06_1032,FERT_140222,2021.2.3,60.0375955420383,
,,,stimControl/trialOrder_ver-1_block-3.xlsx,AM11_Neutral_Fear08.png,FacesImagesToUse/,AM11_Neutral_Fear08.png,FacesImagesToUse/AM11_Neutral_Fear08.png,None,fear,20,3,0.053671974,7,c,,,,,0,2,2,2,0,6,6,6,,,,,,,,,,,,,,,,,,,,,,,,,,,,,,,,,,,484.42838990001474,484.92726850003237,465.3517257999629,c,1,1.836455000040587,484.42838990001474,None,467.21398489997955,,,,,,,,,1,1,1,1,1,2024_Aug_06_1032,FERT_140222,2021.2.3,60.0375955420383,
,,,stimControl/trialOrder_ver-1_block-3.xlsx,AF01_Neutral_Fear10.png,FacesImagesToUse/,AF01_Neutral_Fear10.png,FacesImagesToUse/AF01_Neutral_Fear10.png,None,fear,70,3,0.054859455,8,c,,,,,0,2,2,2,0,7,7,7,,,,,,,,,,,,,,,,,,,,,,,,,,,,,,,,,,,487.32792640000116,487.827491700009,468.2533988999785,n,0,2.4634885999839753,487.32792640000116,None,470.72959489998175,,,,,,,,,1,1,1,1,1,2024_Aug_06_1032,FERT_140222,2021.2.3,60.0375955420383,
,,,stimControl/trialOrder_ver-1_block-3.xlsx,AM11_Neutral_Disgust11.png,FacesImagesToUse/,AM11_Neutral_Disgust11.png,FacesImagesToUse/AM11_Neutral_Disgust11.png,None,disgust,10,3,0.055949158,9,x,,,,,0,2,2,2,0,8,8,8,,,,,,,,,,,,,,,,,,,,,,,,,,,,,,,,,,,490.8445091000176,491.34417160000885,471.767497199995,x,1,1.946375800005626,490.8445091000176,None,473.7296819000039,,,,,,,,,1,1,1,1,1,2024_Aug_06_1032,FERT_140222,2021.2.3,60.0375955420383,
,,,stimControl/trialOrder_ver-1_block-3.xlsx,AF14_Neutral_Happy10.png,FacesImagesToUse/,AF14_Neutral_Happy10.png,FacesImagesToUse/AF14_Neutral_Happy10.png,None,happy,60,3,0.058935213,10,v,,,,,0,2,2,2,0,9,9,9,,,,,,,,,,,,,,,,,,,,,,,,,,,,,,,,,,,493.84461580001516,494.3440009999904,474.7668047999614,v,1,1.2776640999945812,493.84461580001516,None,476.06329799996456,,,,,,,,,1,1,1,1,1,2024_Aug_06_1032,FERT_140222,2021.2.3,60.0375955420383,
,,,stimControl/trialOrder_ver-1_block-3.xlsx,AF01_Neutral_Anger06.png,FacesImagesToUse/,AF01_Neutral_Anger06.png,FacesImagesToUse/AF01_Neutral_Anger06.png,None,anger,90,3,0.087470493,11,z,,,,,0,2,2,2,0,10,10,10,,,,,,,,,,,,,,,,,,,,,,,,,,,,,,,,,,,496.17777539999224,496.67741449997993,477.1010408999864,z,1,4.408001100004185,496.17777539999224,None,481.53006209997693,,,,,,,,,1,1,1,1,1,2024_Aug_06_1032,FERT_140222,2021.2.3,60.0375955420383,
,,,stimControl/trialOrder_ver-1_block-3.xlsx,AF14_Neutral_Disgust08.png,FacesImagesToUse/,AF14_Neutral_Disgust08.png,FacesImagesToUse/AF14_Neutral_Disgust08.png,None,disgust,50,3,0.093735445,12,x,,,,,0,2,2,2,0,11,11,11,,,,,,,,,,,,,,,,,,,,,,,,,,,,,,,,,,,501.6447923000087,502.1437551000272,482.5688742999919,x,1,2.0677548999665305,501.6447923000087,None,484.6632764999522,,,,,,,,,1,1,1,1,1,2024_Aug_06_1032,FERT_140222,2021.2.3,60.0375955420383,
,,,stimControl/trialOrder_ver-1_block-3.xlsx,AF01_Neutral_Disgust11.png,FacesImagesToUse/,AF01_Neutral_Disgust11.png,FacesImagesToUse/AF01_Neutral_Disgust11.png,None,disgust,10,3,0.096313249,13,x,,,,,0,2,2,2,0,12,12,12,,,,,,,,,,,,,,,,,,,,,,,,,,,,,,,,,,,504.7777537999791,505.2773256000364,485.7006849999889,x,1,2.0528773000114597,504.7777537999791,None,487.7800758999656,,,,,,,,,1,1,1,1,1,2024_Aug_06_1032,FERT_140222,2021.2.3,60.0375955420383,
,,,stimControl/trialOrder_ver-1_block-3.xlsx,AF14_Neutral_Sad04.png,FacesImagesToUse/,AF14_Neutral_Sad04.png,FacesImagesToUse/AF14_Neutral_Sad04.png,None,sad,60,3,0.103512043,14,b,,,,,0,2,2,2,0,13,13,13,,,,,,,,,,,,,,,,,,,,,,,,,,,,,,,,,,,507.8942373000318,508.39392860000953,488.8177572999848,m,0,1.1770103999879211,507.8942373000318,None,490.01345359999686,,,,,,,,,1,1,1,1,1,2024_Aug_06_1032,FERT_140222,2021.2.3,60.0375955420383,
,,,stimControl/trialOrder_ver-1_block-3.xlsx,AM13_Neutral_Sad08.png,FacesImagesToUse/,AM13_Neutral_Sad08.png,FacesImagesToUse/AM13_Neutral_Sad08.png,None,sad,60,3,0.109636035,15,b,,,,,0,2,2,2,0,14,14,14,,,,,,,,,,,,,,,,,,,,,,,,,,,,,,,,,,,510.11085220001405,510.61044730001595,491.0464477999485,b,1,3.588081899972167,510.11085220001405,None,494.646396600001,,,,,,,,,1,1,1,1,1,2024_Aug_06_1032,FERT_140222,2021.2.3,60.0375955420383,
,,,stimControl/trialOrder_ver-1_block-3.xlsx,AM11_Neutral_Anger05.png,FacesImagesToUse/,AM11_Neutral_Anger05.png,FacesImagesToUse/AM11_Neutral_Anger05.png,None,anger,100,3,0.133463873,16,z,,,,,0,2,2,2,0,15,15,15,,,,,,,,,,,,,,,,,,,,,,,,,,,,,,,,,,,514.7607989999815,515.2604596000165,495.68604889995186,x,0,6.591989899985492,514.7607989999815,None,502.2980236999574,,,,,,,,,1,1,1,1,1,2024_Aug_06_1032,FERT_140222,2021.2.3,60.0375955420383,
,,,stimControl/trialOrder_ver-1_block-3.xlsx,AF01_Neutral_Surprise04.png,FacesImagesToUse/,AF01_Neutral_Surprise04.png,FacesImagesToUse/AF01_Neutral_Surprise04.png,None,surprise,90,3,0.137185589,17,n,,,,,0,2,2,2,0,16,16,16,,,,,,,,,,,,,,,,,,,,,,,,,,,,,,,,,,,522.410911199986,522.9106420000317,503.3372693999554,m,0,1.090691199991852,522.410911199986,None,504.44657029997325,,,,,,,,,1,1,1,1,1,2024_Aug_06_1032,FERT_140222,2021.2.3,60.0375955420383,
,,,stimControl/trialOrder_ver-1_block-3.xlsx,AF14_Neutral_Neutral11.png,FacesImagesToUse/,AF14_Neutral_Neutral11.png,FacesImagesToUse/AF14_Neutral_Neutral11.png,None,neutral,100,3,0.156629425,18,m,,,,,0,2,2,2,0,17,17,17,,,,,,,,,,,,,,,,,,,,,,,,,,,,,,,,,,,524.5272657999885,525.0270836999989,505.46226849994855,v,0,17.33973279997008,524.5272657999885,None,522.8127191999811,,,,,,,,,1,1,1,1,1,2024_Aug_06_1032,FERT_140222,2021.2.3,60.0375955420383,
,,,stimControl/trialOrder_ver-1_block-3.xlsx,AF14_Neutral_Disgust07.png,FacesImagesToUse/,AF14_Neutral_Disgust07.png,FacesImagesToUse/AF14_Neutral_Disgust07.png,None,disgust,50,3,0.179486003,19,x,,,,,0,2,2,2,0,18,18,18,,,,,,,,,,,,,,,,,,,,,,,,,,,,,,,,,,,542.9270117999986,543.4268798999838,523.8522608999629,x,1,3.859845699975267,542.9270117999986,None,527.7302498999634,,,,,,,,,1,1,1,1,1,2024_Aug_06_1032,FERT_140222,2021.2.3,60.0375955420383,
,,,stimControl/trialOrder_ver-1_block-3.xlsx,AM13_Neutral_Anger08.png,FacesImagesToUse/,AM13_Neutral_Anger08.png,FacesImagesToUse/AM13_Neutral_Anger08.png,None,anger,20,3,0.20407437,20,z,,,,,0,2,2,2,0,19,19,19,,,,,,,,,,,,,,,,,,,,,,,,,,,,,,,,,,,547.8436821000068,548.344100199989,528.770124099974,z,1,1.2012855000211857,547.8436821000068,None,529.9810605999664,,,,,,,,,1,1,1,1,1,2024_Aug_06_1032,FERT_140222,2021.2.3,60.0375955420383,
,,,stimControl/trialOrder_ver-1_block-3.xlsx,AM11_Neutral_Happy09.png,FacesImagesToUse/,AM11_Neutral_Happy09.png,FacesImagesToUse/AM11_Neutral_Happy09.png,None,happy,70,3,0.210999196,21,v,,,,,0,2,2,2,0,20,20,20,,,,,,,,,,,,,,,,,,,,,,,,,,,,,,,,,,,550.0936879999936,550.5932040000334,531.0164151999634,v,1,1.4486723000300117,550.0936879999936,None,532.4791079999995,,,,,,,,,1,1,1,1,1,2024_Aug_06_1032,FERT_140222,2021.2.3,60.0375955420383,
,,,stimControl/trialOrder_ver-1_block-3.xlsx,AF01_Neutral_Anger05.png,FacesImagesToUse/,AF01_Neutral_Anger05.png,FacesImagesToUse/AF01_Neutral_Anger05.png,None,anger,70,3,0.218409844,22,z,,,,,0,2,2,2,0,21,21,21,,,,,,,,,,,,,,,,,,,,,,,,,,,,,,,,,,,552.5933762000059,553.0934412000352,533.5180494999513,m,0,1.674974099965766,552.5933762000059,None,535.2122891999898,,,,,,,,,1,1,1,1,1,2024_Aug_06_1032,FERT_140222,2021.2.3,60.0375955420383,
,,,stimControl/trialOrder_ver-1_block-3.xlsx,AF01_Neutral_Surprise09.png,FacesImagesToUse/,AF01_Neutral_Surprise09.png,FacesImagesToUse/AF01_Neutral_Surprise09.png,None,surprise,30,3,0.22195145,23,n,,,,,0,2,2,2,0,22,22,22,,,,,,,,,,,,,,,,,,,,,,,,,,,,,,,,,,,555.3270701000001,555.8265032999916,536.2513720999705,n,1,1.501669499964919,555.3270701000001,None,537.7632174000028,,,,,,,,,1,1,1,1,1,2024_Aug_06_1032,FERT_140222,2021.2.3,60.0375955420383,
,,,stimControl/trialOrder_ver-1_block-3.xlsx,AM11_Neutral_Happy03.png,FacesImagesToUse/,AM11_Neutral_Happy03.png,FacesImagesToUse/AM11_Neutral_Happy03.png,None,happy,80,3,0.243537953,24,v,,,,,0,2,2,2,0,23,23,23,,,,,,,,,,,,,,,,,,,,,,,,,,,,,,,,,,,557.8769904000219,558.3767019999796,538.8021351999487,m,0,1.4770748000009917,557.8769904000219,None,540.2965431999764,,,,,,,,,1,1,1,1,1,2024_Aug_06_1032,FERT_140222,2021.2.3,60.0375955420383,
,,,stimControl/trialOrder_ver-1_block-3.xlsx,AM13_Neutral_Anger04.png,FacesImagesToUse/,AM13_Neutral_Anger04.png,FacesImagesToUse/AM13_Neutral_Anger04.png,None,anger,90,3,0.248491515,25,z,,,,,0,2,2,2,0,24,24,24,,,,,,,,,,,,,,,,,,,,,,,,,,,,,,,,,,,560.3933377999929,560.8932736000279,541.3314724999946,m,0,1.099069399992004,560.3933377999929,None,542.4291558999685,,,,,,,,,1,1,1,1,1,2024_Aug_06_1032,FERT_140222,2021.2.3,60.0375955420383,
,,,stimControl/trialOrder_ver-1_block-3.xlsx,AF01_Neutral_Happy09.png,FacesImagesToUse/,AF01_Neutral_Happy09.png,FacesImagesToUse/AF01_Neutral_Happy09.png,None,happy,50,3,0.249648794,26,v,,,,,0,2,2,2,0,25,25,25,,,,,,,,,,,,,,,,,,,,,,,,,,,,,,,,,,,562.5437413000036,563.0429417000269,543.467777599988,v,1,1.2154692999902181,562.5437413000036,None,544.6961233000038,,,,,,,,,1,1,1,1,1,2024_Aug_06_1032,FERT_140222,2021.2.3,60.0375955420383,
,,,stimControl/trialOrder_ver-1_block-3.xlsx,AM13_Neutral_Surprise04.png,FacesImagesToUse/,AM13_Neutral_Surprise04.png,FacesImagesToUse/AM13_Neutral_Surprise04.png,None,surprise,100,3,0.25270599,27,n,,,,,0,2,2,2,0,26,26,26,,,,,,,,,,,,,,,,,,,,,,,,,,,,,,,,,,,564.8102514999919,565.3096542999847,545.734318599978,n,1,1.860846700030379,564.8102514999919,None,547.6117849999573,,,,,,,,,1,1,1,1,1,2024_Aug_06_1032,FERT_140222,2021.2.3,60.0375955420383,
,,,stimControl/trialOrder_ver-1_block-3.xlsx,AM13_Neutral_Disgust11.png,FacesImagesToUse/,AM13_Neutral_Disgust11.png,FacesImagesToUse/AM13_Neutral_Disgust11.png,None,disgust,20,3,0.265646814,28,x,,,,,0,2,2,2,0,27,27,27,,,,,,,,,,,,,,,,,,,,,,,,,,,,,,,,,,,567.7271458000178,568.2266042000265,548.6502439999604,x,1,2.0304441999760456,567.7271458000178,None,550.6956612999784,,,,,,,,,1,1,1,1,1,2024_Aug_06_1032,FERT_140222,2021.2.3,60.0375955420383,
,,,stimControl/trialOrder_ver-1_block-3.xlsx,AF14_Neutral_Surprise11.png,FacesImagesToUse/,AF14_Neutral_Surprise11.png,FacesImagesToUse/AF14_Neutral_Surprise11.png,None,surprise,70,3,0.274612971,29,n,,,,,0,2,2,2,0,28,28,28,,,,,,,,,,,,,,,,,,,,,,,,,,,,,,,,,,,570.8103965999908,571.3097979000304,551.7351117999642,n,1,1.1297411000123248,570.8103965999908,None,552.8790409999783,,,,,,,,,1,1,1,1,1,2024_Aug_06_1032,FERT_140222,2021.2.3,60.0375955420383,
,,,stimControl/trialOrder_ver-1_block-3.xlsx,AF01_Neutral_Surprise06.png,FacesImagesToUse/,AF01_Neutral_Surprise06.png,FacesImagesToUse/AF01_Neutral_Surprise06.png,None,surprise,20,3,0.281802095,30,n,,,,,0,2,2,2,0,29,29,29,,,,,,,,,,,,,,,,,,,,,,,,,,,,,,,,,,,572.993464500003,573.4930914000142,553.9185813999502,m,0,1.5488896000315435,572.993464500003,None,555.4799015999888,,,,,,,,,1,1,1,1,1,2024_Aug_06_1032,FERT_140222,2021.2.3,60.0375955420383,
,,,stimControl/trialOrder_ver-1_block-3.xlsx,AF01_Neutral_Fear09.png,FacesImagesToUse/,AF01_Neutral_Fear09.png,FacesImagesToUse/AF01_Neutral_Fear09.png,None,fear,30,3,0.289239061,31,c,,,,,0,2,2,2,0,30,30,30,,,,,,,,,,,,,,,,,,,,,,,,,,,,,,,,,,,575.5935087000253,576.092902400007,556.5188709999784,c,1,7.402491899963934,575.5935087000253,None,563.9458464999916,,,,,,,,,1,1,1,1,1,2024_Aug_06_1032,FERT_140222,2021.2.3,60.0375955420383,
,,,stimControl/trialOrder_ver-1_block-3.xlsx,AM13_Neutral_Fear02.png,FacesImagesToUse/,AM13_Neutral_Fear02.png,FacesImagesToUse/AM13_Neutral_Fear02.png,None,fear,70,3,0.297207256,32,c,,,,,0,2,2,2,0,31,31,31,,,,,,,,,,,,,,,,,,,,,,,,,,,,,,,,,,,584.0600871000206,584.5596662000171,564.9861860999954,m,0,1.0339382999809459,584.0600871000206,None,566.0289871999994,,,,,,,,,1,1,1,1,1,2024_Aug_06_1032,FERT_140222,2021.2.3,60.0375955420383,
,,,stimControl/trialOrder_ver-1_block-3.xlsx,AM11_Neutral_Sad09.png,FacesImagesToUse/,AM11_Neutral_Sad09.png,FacesImagesToUse/AM11_Neutral_Sad09.png,None,sad,60,3,0.308428992,33,b,,,,,0,2,2,2,0,32,32,32,,,,,,,,,,,,,,,,,,,,,,,,,,,,,,,,,,,586.1265710000298,586.626296100032,567.0651497999788,b,1,2.1188486000173725,586.1265710000298,None,569.1797672999674,,,,,,,,,1,1,1,1,1,2024_Aug_06_1032,FERT_140222,2021.2.3,60.0375955420383,
,,,stimControl/trialOrder_ver-1_block-3.xlsx,AM11_Neutral_Fear07.png,FacesImagesToUse/,AM11_Neutral_Fear07.png,FacesImagesToUse/AM11_Neutral_Fear07.png,None,fear,90,3,0.309462723,34,c,,,,,0,2,2,2,0,33,33,33,,,,,,,,,,,,,,,,,,,,,,,,,,,,,,,,,,,589.2935460000299,589.7929107000236,570.2162395999767,c,1,3.3816377999610268,589.2935460000299,None,573.6121981999604,,,,,,,,,1,1,1,1,1,2024_Aug_06_1032,FERT_140222,2021.2.3,60.0375955420383,
,,,stimControl/trialOrder_ver-1_block-3.xlsx,AF14_Neutral_Fear07.png,FacesImagesToUse/,AF14_Neutral_Fear07.png,FacesImagesToUse/AF14_Neutral_Fear07.png,None,fear,60,3,0.31244534,35,c,,,,,0,2,2,2,0,34,34,34,,,,,,,,,,,,,,,,,,,,,,,,,,,,,,,,,,,593.7267986999941,594.2263260000036,574.6525829999591,c,1,1.8320677000447176,593.7267986999941,None,576.4956257999875,,,,,,,,,1,1,1,1,1,2024_Aug_06_1032,FERT_140222,2021.2.3,60.0375955420383,
,,,stimControl/trialOrder_ver-1_block-3.xlsx,AF01_Neutral_Sad09.png,FacesImagesToUse/,AF01_Neutral_Sad09.png,FacesImagesToUse/AF01_Neutral_Sad09.png,None,sad,100,3,0.370107702,36,b,,,,,0,2,2,2,0,35,35,35,,,,,,,,,,,,,,,,,,,,,,,,,,,,,,,,,,,596.5931030000211,597.093014699989,577.5321189999813,b,1,1.5789921000250615,596.5931030000211,None,579.2573890999774,,,,,,,,,1,1,1,1,1,2024_Aug_06_1032,FERT_140222,2021.2.3,60.0375955420383,
,,,stimControl/trialOrder_ver-1_block-3.xlsx,AF01_Neutral_Happy06.png,FacesImagesToUse/,AF01_Neutral_Happy06.png,FacesImagesToUse/AF01_Neutral_Happy06.png,None,happy,20,3,0.371682627,37,v,,,,,0,2,2,2,0,36,36,36,,,,,,,,,,,,,,,,,,,,,,,,,,,,,,,,,,,599.3600971000269,599.859524700034,580.2843758999952,v,1,1.469499500002712,599.3600971000269,None,581.7784777999623,,,,,,,,,1,1,1,1,1,2024_Aug_06_1032,FERT_140222,2021.2.3,60.0375955420383,
,,,stimControl/trialOrder_ver-1_block-3.xlsx,AF14_Neutral_Sad02.png,FacesImagesToUse/,AF14_Neutral_Sad02.png,FacesImagesToUse/AF14_Neutral_Sad02.png,None,sad,100,3,0.381545552,38,b,,,,,0,2,2,2,0,37,37,37,,,,,,,,,,,,,,,,,,,,,,,,,,,,,,,,,,,601.8929183,602.3928589000134,582.8157590999617,m,0,1.4910115000093356,601.8929183,None,584.3295467999997,,,,,,,,,1,1,1,1,1,2024_Aug_06_1032,FERT_140222,2021.2.3,60.0375955420383,
,,,stimControl/trialOrder_ver-1_block-3.xlsx,AF14_Neutral_Anger09.png,FacesImagesToUse/,AF14_Neutral_Anger09.png,FacesImagesToUse/AF14_Neutral_Anger09.png,None,anger,80,3,0.382649771,39,z,,,,,0,2,2,2,0,38,38,38,,,,,,,,,,,,,,,,,,,,,,,,,,,,,,,,,,,604.4433222999796,604.9427038999856,585.3686176000047,z,1,3.160274199966807,604.4433222999796,None,588.6759126999532,,,,,,,,,1,1,1,1,1,2024_Aug_06_1032,FERT_140222,2021.2.3,60.0375955420383,
,,,stimControl/trialOrder_ver-1_block-3.xlsx,AF01_Neutral_Fear02.png,FacesImagesToUse/,AF01_Neutral_Fear02.png,FacesImagesToUse/AF01_Neutral_Fear02.png,None,fear,100,3,0.384477038,40,c,,,,,0,2,2,2,0,39,39,39,,,,,,,,,,,,,,,,,,,,,,,,,,,,,,,,,,,608.7764666000148,609.2761173000326,589.702968699974,m,0,1.1844063000171445,608.7764666000148,None,590.8954806999536,,,,,,,,,1,1,1,1,1,2024_Aug_06_1032,FERT_140222,2021.2.3,60.0375955420383,
,,,stimControl/trialOrder_ver-1_block-3.xlsx,AF14_Neutral_Neutral11.png,FacesImagesToUse/,AF14_Neutral_Neutral11.png,FacesImagesToUse/AF14_Neutral_Neutral11.png,None,neutral,40,3,0.410320569,41,m,,,,,0,2,2,2,0,40,40,40,,,,,,,,,,,,,,,,,,,,,,,,,,,,,,,,,,,610.9764829000342,611.4758544000215,591.9119181999704,m,1,0.7797496999846771,610.9764829000342,None,592.6945252000005,,,,,,,,,1,1,1,1,1,2024_Aug_06_1032,FERT_140222,2021.2.3,60.0375955420383,
,,,stimControl/trialOrder_ver-1_block-3.xlsx,AM13_Neutral_Surprise06.png,FacesImagesToUse/,AM13_Neutral_Surprise06.png,FacesImagesToUse/AM13_Neutral_Surprise06.png,None,surprise,80,3,0.411410338,42,n,,,,,0,2,2,2,0,41,41,41,,,,,,,,,,,,,,,,,,,,,,,,,,,,,,,,,,,612.8099346000236,613.3094943999895,593.732125999988,n,1,1.6202000000048429,612.8099346000236,None,595.3786495999666,,,,,,,,,1,1,1,1,1,2024_Aug_06_1032,FERT_140222,2021.2.3,60.0375955420383,
,,,stimControl/trialOrder_ver-1_block-3.xlsx,AF14_Neutral_Disgust02.png,FacesImagesToUse/,AF14_Neutral_Disgust02.png,FacesImagesToUse/AF14_Neutral_Disgust02.png,None,disgust,50,3,0.416314091,43,x,,,,,0,2,2,2,0,42,42,42,,,,,,,,,,,,,,,,,,,,,,,,,,,,,,,,,,,615.4929786000284,615.9929198999889,596.4193820999935,m,0,1.1521581999841146,615.4929786000284,None,597.5952582999598,,,,,,,,,1,1,1,1,1,2024_Aug_06_1032,FERT_140222,2021.2.3,60.0375955420383,
,,,stimControl/trialOrder_ver-1_block-3.xlsx,AM13_Neutral_Sad03.png,FacesImagesToUse/,AM13_Neutral_Sad03.png,FacesImagesToUse/AM13_Neutral_Sad03.png,None,sad,70,3,0.438855614,44,b,,,,,0,2,2,2,0,43,43,43,,,,,,,,,,,,,,,,,,,,,,,,,,,,,,,,,,,617.7096780000138,618.2093309999909,598.6340048999991,m,0,1.123758799978532,617.7096780000138,None,599.7785988999531,,,,,,,,,1,1,1,1,1,2024_Aug_06_1032,FERT_140222,2021.2.3,60.0375955420383,
,,,stimControl/trialOrder_ver-1_block-3.xlsx,AM13_Neutral_Surprise08.png,FacesImagesToUse/,AM13_Neutral_Surprise08.png,FacesImagesToUse/AM13_Neutral_Surprise08.png,None,surprise,40,3,0.443907291,45,n,,,,,0,2,2,2,0,44,44,44,,,,,,,,,,,,,,,,,,,,,,,,,,,,,,,,,,,619.8931482000044,620.3926549000316,600.8175701999571,m,0,2.0958708000252955,619.8931482000044,None,603.1220412999974,,,,,,,,,1,1,1,1,1,2024_Aug_06_1032,FERT_140222,2021.2.3,60.0375955420383,
,,,stimControl/trialOrder_ver-1_block-3.xlsx,AF01_Neutral_Sad02.png,FacesImagesToUse/,AF01_Neutral_Sad02.png,FacesImagesToUse/AF01_Neutral_Sad02.png,None,sad,70,3,0.47115053,46,b,,,,,0,2,2,2,0,45,45,45,,,,,,,,,,,,,,,,,,,,,,,,,,,,,,,,,,,623.2264493000112,None,604.1490131999599,n,0,0.4768597999936901,623.2264493000112,None,604.6461075999541,,,,,,,,,1,1,1,1,1,2024_Aug_06_1032,FERT_140222,2021.2.3,60.0375955420383,
,,,stimControl/trialOrder_ver-1_block-3.xlsx,AM13_Neutral_Happy10.png,FacesImagesToUse/,AM13_Neutral_Happy10.png,FacesImagesToUse/AM13_Neutral_Happy10.png,None,happy,100,3,0.482391967,47,v,,,,,0,2,2,2,0,46,46,46,,,,,,,,,,,,,,,,,,,,,,,,,,,,,,,,,,,624.7428340000333,623.7547837999882,605.6816327999695,z,0,0.3098368999781087,624.7428340000333,None,605.9957058999571,,,,,,,,,1,1,1,1,1,2024_Aug_06_1032,FERT_140222,2021.2.3,60.0375955420383,
,,,stimControl/trialOrder_ver-1_block-3.xlsx,AM11_Neutral_Disgust06.png,FacesImagesToUse/,AM11_Neutral_Disgust06.png,FacesImagesToUse/AM11_Neutral_Disgust06.png,None,disgust,40,3,0.504011583,48,x,,,,,0,2,2,2,0,47,47,47,,,,,,,,,,,,,,,,,,,,,,,,,,,,,,,,,,,626.1096550999791,None,607.0340703999973,n,0,0.2648409000248648,626.1096550999791,None,607.3119282999542,,,,,,,,,1,1,1,1,1,2024_Aug_06_1032,FERT_140222,2021.2.3,60.0375955420383,
,,,stimControl/trialOrder_ver-1_block-3.xlsx,AM11_Neutral_Anger02.png,FacesImagesToUse/,AM11_Neutral_Anger02.png,FacesImagesToUse/AM11_Neutral_Anger02.png,None,anger,80,3,0.542637211,49,z,,,,,0,2,2,2,0,48,48,48,,,,,,,,,,,,,,,,,,,,,,,,,,,,,,,,,,,627.4278623000137,627.9425457000034,608.350829300005,x,0,1.982969700009562,627.4278623000137,None,610.3449955999968,,,,,,,,,1,1,1,1,1,2024_Aug_06_1032,FERT_140222,2021.2.3,60.0375955420383,
,,,stimControl/trialOrder_ver-1_block-3.xlsx,AM13_Neutral_Happy07.png,FacesImagesToUse/,AM13_Neutral_Happy07.png,FacesImagesToUse/AM13_Neutral_Happy07.png,None,happy,60,3,0.565363314,50,v,,,,,0,2,2,2,0,49,49,49,,,,,,,,,,,,,,,,,,,,,,,,,,,,,,,,,,,630.4430863999878,630.9424641000223,611.3794744999614,x,0,0.7422924999846146,630.4430863999878,None,612.1284444999765,,,,,,,,,1,1,1,1,1,2024_Aug_06_1032,FERT_140222,2021.2.3,60.0375955420383,
,,,stimControl/trialOrder_ver-1_block-3.xlsx,AM11_Neutral_Disgust07.png,FacesImagesToUse/,AM11_Neutral_Disgust07.png,FacesImagesToUse/AM11_Neutral_Disgust07.png,None,disgust,20,3,0.589154497,51,x,,,,,0,2,2,2,0,50,50,50,,,,,,,,,,,,,,,,,,,,,,,,,,,,,,,,,,,632.2429483000305,632.7424349000212,613.1666067999904,n,0,0.8246641999576241,632.2429483000305,None,614.166986999975,,,,,,,,,1,1,1,1,1,2024_Aug_06_1032,FERT_140222,2021.2.3,60.0375955420383,
,,,stimControl/trialOrder_ver-1_block-3.xlsx,AM13_Neutral_Anger06.png,FacesImagesToUse/,AM13_Neutral_Anger06.png,FacesImagesToUse/AM13_Neutral_Anger06.png,None,anger,90,3,0.596099703,52,z,,,,,0,2,2,2,0,51,51,51,,,,,,,,,,,,,,,,,,,,,,,,,,,,,,,,,,,634.2763341999962,634.7757191000273,615.1938348999829,m,0,1.3092225000145845,634.2763341999962,None,616.7267818999826,,,,,,,,,1,1,1,1,1,2024_Aug_06_1032,FERT_140222,2021.2.3,60.0375955420383,
,,,stimControl/trialOrder_ver-1_block-3.xlsx,AM13_Neutral_Happy08.png,FacesImagesToUse/,AM13_Neutral_Happy08.png,FacesImagesToUse/AM13_Neutral_Happy08.png,None,happy,70,3,0.611189221,53,v,,,,,0,2,2,2,0,52,52,52,,,,,,,,,,,,,,,,,,,,,,,,,,,,,,,,,,,636.8261138999951,637.3256462999852,617.7554866999853,v,1,1.508058799954597,636.8261138999951,None,619.2782702999539,,,,,,,,,1,1,1,1,1,2024_Aug_06_1032,FERT_140222,2021.2.3,60.0375955420383,
,,,stimControl/trialOrder_ver-1_block-3.xlsx,AF14_Neutral_Anger08.png,FacesImagesToUse/,AF14_Neutral_Anger08.png,FacesImagesToUse/AF14_Neutral_Anger08.png,None,anger,10,3,0.654380217,54,z,,,,,0,2,2,2,0,53,53,53,,,,,,,,,,,,,,,,,,,,,,,,,,,,,,,,,,,639.3929974000202,639.8922076000017,620.3181299999706,z,1,1.9224950000061654,639.3929974000202,None,622.2612913000048,,,,,,,,,1,1,1,1,1,2024_Aug_06_1032,FERT_140222,2021.2.3,60.0375955420383,
,,,stimControl/trialOrder_ver-1_block-3.xlsx,AF01_Neutral_Surprise10.png,FacesImagesToUse/,AF01_Neutral_Surprise10.png,FacesImagesToUse/AF01_Neutral_Surprise10.png,None,surprise,30,3,0.667390188,55,n,,,,,0,2,2,2,0,54,54,54,,,,,,,,,,,,,,,,,,,,,,,,,,,,,,,,,,,642.3759451999795,642.8758043000125,623.2988896999741,n,1,1.2534002999891527,642.3759451999795,None,624.5790783999837,,,,,,,,,1,1,1,1,1,2024_Aug_06_1032,FERT_140222,2021.2.3,60.0375955420383,
,,,stimControl/trialOrder_ver-1_block-3.xlsx,AM11_Neutral_Surprise09.png,FacesImagesToUse/,AM11_Neutral_Surprise09.png,FacesImagesToUse/AM11_Neutral_Surprise09.png,None,surprise,30,3,0.679912989,56,n,,,,,0,2,2,2,0,55,55,55,,,,,,,,,,,,,,,,,,,,,,,,,,,,,,,,,,,644.6928935000324,645.1922533999896,625.6169636999839,n,1,1.6491283999639563,644.6928935000324,None,627.2788224999676,,,,,,,,,1,1,1,1,1,2024_Aug_06_1032,FERT_140222,2021.2.3,60.0375955420383,
,,,stimControl/trialOrder_ver-1_block-3.xlsx,AF14_Neutral_Anger04.png,FacesImagesToUse/,AF14_Neutral_Anger04.png,FacesImagesToUse/AF14_Neutral_Anger04.png,None,anger,20,3,0.68740515,57,z,,,,,0,2,2,2,0,56,56,56,,,,,,,,,,,,,,,,,,,,,,,,,,,,,,,,,,,647.3926433000015,647.8920664000325,628.3177417999832,z,1,4.969342899974436,647.3926433000015,None,633.3115827000001,,,,,,,,,1,1,1,1,1,2024_Aug_06_1032,FERT_140222,2021.2.3,60.0375955420383,
,,,stimControl/trialOrder_ver-1_block-3.xlsx,AM11_Neutral_Fear06.png,FacesImagesToUse/,AM11_Neutral_Fear06.png,FacesImagesToUse/AM11_Neutral_Fear06.png,None,fear,50,3,0.691333719,58,c,,,,,0,2,2,2,0,57,57,57,,,,,,,,,,,,,,,,,,,,,,,,,,,,,,,,,,,653.4259864999913,653.9255725999828,634.3509455999592,m,0,1.6444677999825217,653.4259864999913,None,636.0116016999818,,,,,,,,,1,1,1,1,1,2024_Aug_06_1032,FERT_140222,2021.2.3,60.0375955420383,
,,,stimControl/trialOrder_ver-1_block-3.xlsx,AF14_Neutral_Sad05.png,FacesImagesToUse/,AF14_Neutral_Sad05.png,FacesImagesToUse/AF14_Neutral_Sad05.png,None,sad,30,3,0.694340601,59,b,,,,,0,2,2,2,0,58,58,58,,,,,,,,,,,,,,,,,,,,,,,,,,,,,,,,,,,656.1258738000179,656.6256286000134,637.0497966999537,b,1,2.2317871000268497,656.1258738000179,None,639.2949478999944,,,,,,,,,1,1,1,1,1,2024_Aug_06_1032,FERT_140222,2021.2.3,60.0375955420383,
,,,stimControl/trialOrder_ver-1_block-3.xlsx,AM11_Neutral_Happy10.png,FacesImagesToUse/,AM11_Neutral_Happy10.png,FacesImagesToUse/AM11_Neutral_Happy10.png,None,happy,10,3,0.69930155,60,v,,,,,0,2,2,2,0,59,59,59,,,,,,,,,,,,,,,,,,,,,,,,,,,,,,,,,,,659.4093130999827,659.9086684000213,640.3330362999695,v,1,1.5466578000341542,659.4093130999827,None,641.8942813999602,,,,,,,,,1,1,1,1,1,2024_Aug_06_1032,FERT_140222,2021.2.3,60.0375955420383,
,,,stimControl/trialOrder_ver-1_block-3.xlsx,AF01_Neutral_Happy04.png,FacesImagesToUse/,AF01_Neutral_Happy04.png,FacesImagesToUse/AF01_Neutral_Happy04.png,None,happy,60,3,0.706863761,61,v,,,,,0,2,2,2,0,60,60,60,,,,,,,,,,,,,,,,,,,,,,,,,,,,,,,,,,,662.0092398999841,662.5086781000136,642.9321976999636,v,1,1.3615123000345193,662.0092398999841,None,644.3112508999766,,,,,,,,,1,1,1,1,1,2024_Aug_06_1032,FERT_140222,2021.2.3,60.0375955420383,
,,,stimControl/trialOrder_ver-1_block-3.xlsx,AM13_Neutral_Fear11.png,FacesImagesToUse/,AM13_Neutral_Fear11.png,FacesImagesToUse/AM13_Neutral_Fear11.png,None,fear,10,3,0.729539153,62,c,,,,,0,2,2,2,0,61,61,61,,,,,,,,,,,,,,,,,,,,,,,,,,,,,,,,,,,664.4260226000333,664.9254728999804,645.349965500005,x,0,1.9584430999821052,664.4260226000333,None,647.3194838999771,,,,,,,,,1,1,1,1,1,2024_Aug_06_1032,FERT_140222,2021.2.3,60.0375955420383,
,,,stimControl/trialOrder_ver-1_block-3.xlsx,,,,,,,,,,,,,,,,0,2,2,2,,,,,,,,,,,,,,,,,,,,,,,,,,,,,,,,,,,,,,,,,,,,,,,,666.392928700021,None,space,28.6686417000019,666.392928700021,None,647.3195645999513,676.0111787999631,1,1,1,1,1,2024_Aug_06_1032,FERT_140222,2021.2.3,60.0375955420383,
,,,stimControl/trialOrder_ver-1_block-4.xlsx,AF14_Neutral_Fear10.png,FacesImagesToUse/,AF14_Neutral_Fear10.png,FacesImagesToUse/AF14_Neutral_Fear10.png,None,fear,100,4,0.001942487,1,c,,,,,0,3,3,3,0,0,0,0,,,,,,,,,,,,,,,,,,,,,,,,,,,,,,,,,695.0910563999787,None,698.1586765000247,698.6584678000072,679.0883883999777,n,0,0.7735758999479003,698.1586765000247,None,679.8784540999914,,,,,,,,,1,1,1,1,1,2024_Aug_06_1032,FERT_140222,2021.2.3,60.0375955420383,
,,,stimControl/trialOrder_ver-1_block-4.xlsx,AM13_Neutral_Sad07.png,FacesImagesToUse/,AM13_Neutral_Sad07.png,FacesImagesToUse/AM13_Neutral_Sad07.png,None,sad,80,4,0.008547033,2,b,,,,,0,3,3,3,0,1,1,1,,,,,,,,,,,,,,,,,,,,,,,,,,,,,,,,,,,699.9921413999982,700.4917375000077,680.9180080999504,x,0,0.8887144000036642,699.9921413999982,None,681.8279504999518,,,,,,,,,1,1,1,1,1,2024_Aug_06_1032,FERT_140222,2021.2.3,60.0375955420383,
,,,stimControl/trialOrder_ver-1_block-4.xlsx,AF14_Neutral_Disgust04.png,FacesImagesToUse/,AF14_Neutral_Disgust04.png,FacesImagesToUse/AF14_Neutral_Disgust04.png,None,disgust,50,4,0.021024518,3,x,,,,,0,3,3,3,0,2,2,2,,,,,,,,,,,,,,,,,,,,,,,,,,,,,,,,,,,701.9419398999889,702.4417062000139,682.8669674999546,z,0,0.7663620999665,701.9419398999889,None,683.6445315000019,,,,,,,,,1,1,1,1,1,2024_Aug_06_1032,FERT_140222,2021.2.3,60.0375955420383,
,,,stimControl/trialOrder_ver-1_block-4.xlsx,AM13_Neutral_Happy02.png,FacesImagesToUse/,AM13_Neutral_Happy02.png,FacesImagesToUse/AM13_Neutral_Happy02.png,None,happy,100,4,0.021693654,4,v,,,,,0,3,3,3,0,3,3,3,,,,,,,,,,,,,,,,,,,,,,,,,,,,,,,,,,,703.7584547000006,None,684.6834938999964,n,0,0.37257880001561716,703.7584547000006,None,685.0778567999951,,,,,,,,,1,1,1,1,1,2024_Aug_06_1032,FERT_140222,2021.2.3,60.0375955420383,
,,,stimControl/trialOrder_ver-1_block-4.xlsx,AF14_Neutral_Sad03.png,FacesImagesToUse/,AF14_Neutral_Sad03.png,FacesImagesToUse/AF14_Neutral_Sad03.png,None,sad,50,4,0.029250319,5,b,,,,,0,3,3,3,0,4,4,4,,,,,,,,,,,,,,,,,,,,,,,,,,,,,,,,,,,705.1754428999848,None,686.099492099951,m,0,0.4220735999988392,705.1754428999848,None,686.5441204999806,,,,,,,,,1,1,1,1,1,2024_Aug_06_1032,FERT_140222,2021.2.3,60.0375955420383,
,,,stimControl/trialOrder_ver-1_block-4.xlsx,AF01_Neutral_Happy07.png,FacesImagesToUse/,AF01_Neutral_Happy07.png,FacesImagesToUse/AF01_Neutral_Happy07.png,None,happy,50,4,0.038734473,6,v,,,,,0,3,3,3,0,5,5,5,,,,,,,,,,,,,,,,,,,,,,,,,,,,,,,,,,,706.64246860001,None,687.5805270999554,z,0,0.48372129997005686,706.64246860001,None,688.062343299971,,,,,,,,,1,1,1,1,1,2024_Aug_06_1032,FERT_140222,2021.2.3,60.0375955420383,
,,,stimControl/trialOrder_ver-1_block-4.xlsx,AF01_Neutral_Sad10.png,FacesImagesToUse/,AF01_Neutral_Sad10.png,FacesImagesToUse/AF01_Neutral_Sad10.png,None,sad,20,4,0.053671974,7,b,,,,,0,3,3,3,0,6,6,6,,,,,,,,,,,,,,,,,,,,,,,,,,,,,,,,,,,708.1753201999818,707.1731267999858,689.099873500003,n,0,0.41866540000773966,708.1753201999818,None,689.5443877999787,,,,,,,,,1,1,1,1,1,2024_Aug_06_1032,FERT_140222,2021.2.3,60.0375955420383,
,,,stimControl/trialOrder_ver-1_block-4.xlsx,AM11_Neutral_Sad11.png,FacesImagesToUse/,AM11_Neutral_Sad11.png,FacesImagesToUse/AM11_Neutral_Sad11.png,None,sad,70,4,0.054859455,8,b,,,,,0,3,3,3,0,7,7,7,,,,,,,,,,,,,,,,,,,,,,,,,,,,,,,,,,,709.6588364000199,710.1583284999942,690.584662099951,b,1,0.7932374000083655,709.6588364000199,None,691.3939873999916,,,,,,,,,1,1,1,1,1,2024_Aug_06_1032,FERT_140222,2021.2.3,60.0375955420383,
,,,stimControl/trialOrder_ver-1_block-4.xlsx,AF14_Neutral_Surprise08.png,FacesImagesToUse/,AF14_Neutral_Surprise08.png,FacesImagesToUse/AF14_Neutral_Surprise08.png,None,surprise,10,4,0.055949158,9,n,,,,,0,3,3,3,0,8,8,8,,,,,,,,,,,,,,,,,,,,,,,,,,,,,,,,,,,711.508899700013,None,692.4331287999521,z,0,0.46206960000563413,711.508899700013,None,692.9126716000028,,,,,,,,,1,1,1,1,1,2024_Aug_06_1032,FERT_140222,2021.2.3,60.0375955420383,
,,,stimControl/trialOrder_ver-1_block-4.xlsx,AF01_Neutral_Sad03.png,FacesImagesToUse/,AF01_Neutral_Sad03.png,FacesImagesToUse/AF01_Neutral_Sad03.png,None,sad,60,4,0.058935213,10,b,,,,,0,3,3,3,0,9,9,9,,,,,,,,,,,,,,,,,,,,,,,,,,,,,,,,,,,713.0251434000093,713.5248854000238,693.9533926000004,n,0,1.0655278000049293,713.0251434000093,None,695.0275592999533,,,,,,,,,1,1,1,1,1,2024_Aug_06_1032,FERT_140222,2021.2.3,60.0375955420383,
,,,stimControl/trialOrder_ver-1_block-4.xlsx,AM13_Neutral_Fear10.png,FacesImagesToUse/,AM13_Neutral_Fear10.png,FacesImagesToUse/AM13_Neutral_Fear10.png,None,fear,90,4,0.087470493,11,c,,,,,0,3,3,3,0,10,10,10,,,,,,,,,,,,,,,,,,,,,,,,,,,,,,,,,,,715.1416843000334,None,696.0665700999671,b,0,0.3874051999882795,715.1416843000334,None,696.4778101999545,,,,,,,,,1,1,1,1,1,2024_Aug_06_1032,FERT_140222,2021.2.3,60.0375955420383,
,,,stimControl/trialOrder_ver-1_block-4.xlsx,AF01_Neutral_Anger03.png,FacesImagesToUse/,AF01_Neutral_Anger03.png,FacesImagesToUse/AF01_Neutral_Anger03.png,None,anger,50,4,0.093735445,12,z,,,,,0,3,3,3,0,11,11,11,,,,,,,,,,,,,,,,,,,,,,,,,,,,,,,,,,,716.5917374999844,None,697.5147813999793,z,1,0.4116663000313565,716.5917374999844,None,697.9442780999816,,,,,,,,,1,1,1,1,1,2024_Aug_06_1032,FERT_140222,2021.2.3,60.0375955420383,
,,,stimControl/trialOrder_ver-1_block-4.xlsx,AM11_Neutral_Happy07.png,FacesImagesToUse/,AM11_Neutral_Happy07.png,FacesImagesToUse/AM11_Neutral_Happy07.png,None,happy,10,4,0.096313249,13,v,,,,,0,3,3,3,0,12,12,12,,,,,,,,,,,,,,,,,,,,,,,,,,,,,,,,,,,718.0583858999889,718.5582006000332,698.983216899971,m,0,0.9875069999834523,718.0583858999889,None,699.9944792999886,,,,,,,,,1,1,1,1,1,2024_Aug_06_1032,FERT_140222,2021.2.3,60.0375955420383,
,,,stimControl/trialOrder_ver-1_block-4.xlsx,AF14_Neutral_Sad10.png,FacesImagesToUse/,AF14_Neutral_Sad10.png,FacesImagesToUse/AF14_Neutral_Sad10.png,None,sad,60,4,0.103512043,14,b,,,,,0,3,3,3,0,13,13,13,,,,,,,,,,,,,,,,,,,,,,,,,,,,,,,,,,,720.0919385000016,720.5916780999978,701.028223799949,z,0,0.7752633999916725,720.0919385000016,None,701.8114075999474,,,,,,,,,1,1,1,1,1,2024_Aug_06_1032,FERT_140222,2021.2.3,60.0375955420383,
,,,stimControl/trialOrder_ver-1_block-4.xlsx,AM11_Neutral_Neutral11.png,FacesImagesToUse/,AM11_Neutral_Neutral11.png,FacesImagesToUse/AM11_Neutral_Neutral11.png,None,neutral,60,4,0.109636035,15,m,,,,,0,3,3,3,0,14,14,14,,,,,,,,,,,,,,,,,,,,,,,,,,,,,,,,,,,721.8915308000287,722.3916834000265,702.8281758999801,b,0,0.5469534999574535,721.8915308000287,None,703.3784630000009,,,,,,,,,1,1,1,1,1,2024_Aug_06_1032,FERT_140222,2021.2.3,60.0375955420383,
,,,stimControl/trialOrder_ver-1_block-4.xlsx,AF01_Neutral_Surprise03.png,FacesImagesToUse/,AF01_Neutral_Surprise03.png,FacesImagesToUse/AF01_Neutral_Surprise03.png,None,surprise,100,4,0.133463873,16,n,,,,,0,3,3,3,0,15,15,15,,,,,,,,,,,,,,,,,,,,,,,,,,,,,,,,,,,723.4750700999866,723.9748668000102,704.4008056999883,n,1,1.2635113000287674,723.4750700999866,None,705.6769790999824,,,,,,,,,1,1,1,1,1,2024_Aug_06_1032,FERT_140222,2021.2.3,60.0375955420383,
,,,stimControl/trialOrder_ver-1_block-4.xlsx,AF01_Neutral_Disgust04.png,FacesImagesToUse/,AF01_Neutral_Disgust04.png,FacesImagesToUse/AF01_Neutral_Disgust04.png,None,disgust,90,4,0.137185589,17,x,,,,,0,3,3,3,0,16,16,16,,,,,,,,,,,,,,,,,,,,,,,,,,,,,,,,,,,725.7916541000013,726.2914456999861,706.7146708999644,b,0,1.0270782000152394,725.7916541000013,None,707.7609373999876,,,,,,,,,1,1,1,1,1,2024_Aug_06_1032,FERT_140222,2021.2.3,60.0375955420383,
,,,stimControl/trialOrder_ver-1_block-4.xlsx,AF14_Neutral_Surprise09.png,FacesImagesToUse/,AF14_Neutral_Surprise09.png,FacesImagesToUse/AF14_Neutral_Surprise09.png,None,surprise,100,4,0.156629425,18,n,,,,,0,3,3,3,0,17,17,17,,,,,,,,,,,,,,,,,,,,,,,,,,,,,,,,,,,727.8750585999805,728.3746955000097,708.8005070999498,z,0,1.2318828999996185,727.8750585999805,None,710.0446278000018,,,,,,,,,1,1,1,1,1,2024_Aug_06_1032,FERT_140222,2021.2.3,60.0375955420383,
,,,stimControl/trialOrder_ver-1_block-4.xlsx,AF01_Neutral_Fear11.png,FacesImagesToUse/,AF01_Neutral_Fear11.png,FacesImagesToUse/AF01_Neutral_Fear11.png,None,fear,50,4,0.179486003,19,c,,,,,0,3,3,3,0,18,18,18,,,,,,,,,,,,,,,,,,,,,,,,,,,,,,,,,,,730.1578454999835,730.6581746999873,711.0833163999487,n,0,1.9715071999817155,730.1578454999835,None,713.0769819999696,,,,,,,,,1,1,1,1,1,2024_Aug_06_1032,FERT_140222,2021.2.3,60.0375955420383,
,,,stimControl/trialOrder_ver-1_block-4.xlsx,AM13_Neutral_Disgust08.png,FacesImagesToUse/,AM13_Neutral_Disgust08.png,FacesImagesToUse/AM13_Neutral_Disgust08.png,None,disgust,20,4,0.20407437,20,x,,,,,0,3,3,3,0,19,19,19,,,,,,,,,,,,,,,,,,,,,,,,,,,,,,,,,,,733.1915051999968,None,714.1157305999659,n,0,0.46789309999439865,733.1915051999968,None,714.593987500004,,,,,,,,,1,1,1,1,1,2024_Aug_06_1032,FERT_140222,2021.2.3,60.0375955420383,
,,,stimControl/trialOrder_ver-1_block-4.xlsx,AF14_Neutral_Anger06.png,FacesImagesToUse/,AF14_Neutral_Anger06.png,FacesImagesToUse/AF14_Neutral_Anger06.png,None,anger,70,4,0.210999196,21,z,,,,,0,3,3,3,0,20,20,20,,,,,,,,,,,,,,,,,,,,,,,,,,,,,,,,,,,734.708347000007,None,715.6317703999812,z,1,0.2780662999721244,734.708347000007,None,715.9274252000032,,,,,,,,,1,1,1,1,1,2024_Aug_06_1032,FERT_140222,2021.2.3,60.0375955420383,
,,,stimControl/trialOrder_ver-1_block-4.xlsx,AF01_Neutral_Happy11.png,FacesImagesToUse/,AF01_Neutral_Happy11.png,FacesImagesToUse/AF01_Neutral_Happy11.png,None,happy,70,4,0.218409844,22,v,,,,,0,3,3,3,0,21,21,21,,,,,,,,,,,,,,,,,,,,,,,,,,,,,,,,,,,736.0416366999852,736.5413704999955,716.966152399953,b,0,2.1117466000141576,736.0416366999852,None,719.0938722999999,,,,,,,,,1,1,1,1,1,2024_Aug_06_1032,FERT_140222,2021.2.3,60.0375955420383,
,,,stimControl/trialOrder_ver-1_block-4.xlsx,AF14_Neutral_Disgust09.png,FacesImagesToUse/,AF14_Neutral_Disgust09.png,FacesImagesToUse/AF14_Neutral_Disgust09.png,None,disgust,30,4,0.22195145,23,x,,,,,0,3,3,3,0,22,22,22,,,,,,,,,,,,,,,,,,,,,,,,,,,,,,,,,,,739.2079930999898,739.7079680000315,720.132693499967,b,0,0.6743892999948002,739.2079930999898,None,720.8276583999977,,,,,,,,,1,1,1,1,1,2024_Aug_06_1032,FERT_140222,2021.2.3,60.0375955420383,
,,,stimControl/trialOrder_ver-1_block-4.xlsx,AF14_Neutral_Happy07.png,FacesImagesToUse/,AF14_Neutral_Happy07.png,FacesImagesToUse/AF14_Neutral_Happy07.png,None,happy,80,4,0.243537953,24,v,,,,,0,3,3,3,0,23,23,23,,,,,,,,,,,,,,,,,,,,,,,,,,,,,,,,,,,740.9417237000307,None,721.8651658999734,n,0,0.45070009998744354,740.9417237000307,None,722.3279575999477,,,,,,,,,1,1,1,1,1,2024_Aug_06_1032,FERT_140222,2021.2.3,60.0375955420383,
,,,stimControl/trialOrder_ver-1_block-4.xlsx,AM11_Neutral_Disgust03.png,FacesImagesToUse/,AM11_Neutral_Disgust03.png,FacesImagesToUse/AM11_Neutral_Disgust03.png,None,disgust,90,4,0.248491515,25,x,,,,,0,3,3,3,0,24,24,24,,,,,,,,,,,,,,,,,,,,,,,,,,,,,,,,,,,742.4415851000231,742.9411078999983,723.3663283999776,m,0,2.198582799988799,742.4415851000231,None,725.7908635999775,,,,,,,,,1,1,1,1,1,2024_Aug_06_1032,FERT_140222,2021.2.3,60.0375955420383,
,,,stimControl/trialOrder_ver-1_block-4.xlsx,AF14_Neutral_Anger05.png,FacesImagesToUse/,AF14_Neutral_Anger05.png,FacesImagesToUse/AF14_Neutral_Anger05.png,None,anger,50,4,0.249648794,26,z,,,,,0,3,3,3,0,25,25,25,,,,,,,,,,,,,,,,,,,,,,,,,,,,,,,,,,,745.8916203000117,746.3911603000015,726.8179086999735,b,0,0.8552104000118561,745.8916203000117,None,727.6938663999899,,,,,,,,,1,1,1,1,1,2024_Aug_06_1032,FERT_140222,2021.2.3,60.0375955420383,
,,,stimControl/trialOrder_ver-1_block-4.xlsx,AM11_Neutral_Disgust10.png,FacesImagesToUse/,AM11_Neutral_Disgust10.png,FacesImagesToUse/AM11_Neutral_Disgust10.png,None,disgust,100,4,0.25270599,27,x,,,,,0,3,3,3,0,26,26,26,,,,,,,,,,,,,,,,,,,,,,,,,,,,,,,,,,,747.8080650999909,748.3076284999843,728.7315524999867,z,0,0.49833490001037717,747.8080650999909,None,729.2441635999712,,,,,,,,,1,1,1,1,1,2024_Aug_06_1032,FERT_140222,2021.2.3,60.0375955420383,
,,,stimControl/trialOrder_ver-1_block-4.xlsx,AF14_Neutral_Surprise03.png,FacesImagesToUse/,AF14_Neutral_Surprise03.png,FacesImagesToUse/AF14_Neutral_Surprise03.png,None,surprise,20,4,0.265646814,28,n,,,,,0,3,3,3,0,27,27,27,,,,,,,,,,,,,,,,,,,,,,,,,,,,,,,,,,,749.3581585999927,749.8583281000028,730.2823464999674,n,1,0.7469147000228986,749.3581585999927,None,731.0440094999503,,,,,,,,,1,1,1,1,1,2024_Aug_06_1032,FERT_140222,2021.2.3,60.0375955420383,
