key_disp,resp_disp,key_inp,trialOrderFile,str_name,str_familiarity,str_valence,str_block,key_correct,loop_checkKeyMap.thisRepN,loop_checkKeyMap.thisTrialN,loop_checkKeyMap.thisN,loop_checkKeyMap.thisIndex,loop_block.thisRepN,loop_block.thisTrialN,loop_block.thisN,loop_block.thisIndex,loop_trials.thisRepN,loop_trials.thisTrialN,loop_trials.thisN,loop_trials.thisIndex,time_expBegin,txt_checkFiles_start.started,txt_checkFiles_start.stopped,txt_checkFiles_end.started,txt_checkFiles_end.stopped,key_checkFilesCompleteAccept.keys,key_checkFilesCompleteAccept.rt,key_checkFilesCompleteAccept.started,key_checkFilesCompleteAccept.stopped,txt_resFileClashWarn.started,txt_resFileClashWarn.stopped,key_resp_resClash.keys,key_resp_resClash.started,key_resp_resClash.stopped,str_keyInst.started,str_keyInst.stopped,key_startTask.keys,key_startTask.rt,key_startTask.started,key_startTask.stopped,txt_checkKeyMap.started,txt_checkKeyMap.stopped,key_resp_checkKeyMap.keys,key_resp_checkKeyMap.rt,key_resp_checkKeyMap.started,key_resp_checkKeyMap.stopped,text_checkKeyMapComplete.started,text_checkKeyMapComplete.stopped,key_beginTrials.keys,key_beginTrials.rt,key_beginTrials.started,key_beginTrials.stopped,text_getReady.started,text_getReady.stopped,str_fixationcross.started,str_fixationcross.stopped,im_trialWords.started,im_trialWords.stopped,time_trialBegin,key_respTrial.keys,key_respTrial.corr,key_respTrial.rt,key_respTrial.started,key_respTrial.stopped,time_trialEnd,Study Code,Participant ID,Researcher Name,Research Visit Number,Task Version Number,date,expName,psychopyVersion,frameRate,
,,,,,,,,,,,,,,,,,,,,,7.0999376475811005e-06,9.39002559997607,None,11.36812750005629,None,space,0.7280061000492424,11.36812750005629,None,,,,,,,,,,,,,,,,,,,,,,,,,,,,,,,,,,,,,1,1,1,1,1,2024_Aug_02_1927,EMEM_140222,2021.2.3,60.0284775029457,
,,,,,,,,,,,,,,,,,,,,,,,,,,,,,,None,None,None,None,None,,,,,,,,,,,,,,,,,,,,,,,,,,,,,,,,1,1,1,1,1,2024_Aug_02_1927,EMEM_140222,2021.2.3,60.0284775029457,
,,,,,,,,,,,,,,,,,,,,,,,,,,,,,,,,,,,12.166075499961153,None,space,8.644213699968532,12.166075499961153,None,,,,,,,,,,,,,,,,,,,,,,,,,,1,1,1,1,1,2024_Aug_02_1927,EMEM_140222,2021.2.3,60.0284775029457,
1,SIM,1,,,,,,,0,0,0,0,,,,,,,,,,,,,,,,,,,,,,,,,,,,,20.853230600012466,None,1,1.8711101000662893,20.853230600012466,None,,,,,,,,,,,,,,,,,,,,1,1,1,1,1,2024_Aug_02_1927,EMEM_140222,2021.2.3,60.0284775029457,
0,NÃO,0,,,,,,,0,1,1,1,,,,,,,,,,,,,,,,,,,,,,,,,,,,,22.743184600025415,None,0,1.071912799961865,22.743184600025415,None,,,,,,,,,,,,,,,,,,,,1,1,1,1,1,2024_Aug_02_1927,EMEM_140222,2021.2.3,60.0284775029457,
,,,,,,,,,,,,,,,,,,,,,,,,,,,,,,,,,,,,,,,,,,,,,,,23.84150470001623,None,space,3.5206530999857932,23.84150470001623,None,,,,,,,,,,,,,,1,1,1,1,1,2024_Aug_02_1927,EMEM_140222,2021.2.3,60.0284775029457,
,,,stimControl/trialOrder_ver-1_block-1.xlsx,Mente fechada,Familiar,negative,1,1,,,,,0,0,0,0,0,0,0,0,,,,,,,,,,,,,,,,,,,,,,,,,,,,,,,,,27.3930709999986,None,29.42240080004558,29.92487109999638,29.92487109999638,30.425013600033708,20.064095599926077,1,1,0.9153695000568405,29.92487109999638,None,24.041983300005086,1,1,1,1,1,2024_Aug_02_1927,EMEM_140222,2021.2.3,60.0284775029457,
,,,stimControl/trialOrder_ver-1_block-1.xlsx,Dedicado,Novel,positive,1,0,,,,,0,0,0,0,0,1,1,39,,,,,,,,,,,,,,,,,,,,,,,,,,,,,,,,,,,33.4085541999666,33.908391000004485,33.89152299996931,34.39167120005004,24.04257049993612,None,0,,33.89152299996931,None,28.024258699966595,1,1,1,1,1,2024_Aug_02_1927,EMEM_140222,2021.2.3,60.0284775029457,
,,,stimControl/trialOrder_ver-1_block-1.xlsx,Detestável,Novel,negative,1,0,,,,,0,0,0,0,0,2,2,26,,,,,,,,,,,,,,,,,,,,,,,,,,,,,,,,,,,37.391943800030276,37.89139520004392,37.87451540003531,38.37483500002418,28.024855899973772,0,1,0.8051320998929441,37.87451540003531,37.391943800030276,32.00808189995587,1,1,1,1,1,2024_Aug_02_1927,EMEM_140222,2021.2.3,60.0284775029457,
,,,stimControl/trialOrder_ver-1_block-1.xlsx,Pessimista,Familiar,negative,1,1,,,,,0,0,0,0,0,3,3,7,,,,,,,,,,,,,,,,,,,,,,,,,,,,,,,,,,,41.3748713999521,41.874624800053425,41.85803220001981,42.35825649998151,32.00878459995147,1,1,0.70043089997489,41.85803220001981,41.3748713999521,35.99242249992676,1,1,1,1,1,2024_Aug_02_1927,EMEM_140222,2021.2.3,60.0284775029457,
,,,stimControl/trialOrder_ver-1_block-1.xlsx,Rude,Familiar,negative,1,1,,,,,0,0,0,0,0,4,4,1,,,,,,,,,,,,,,,,,,,,,,,,,,,,,,,,,,,45.35803260002285,45.8581814999925,45.8413158999756,46.3415119999554,35.99319750000723,None,0,,45.8413158999756,45.35803260002285,39.97470479994081,1,1,1,1,1,2024_Aug_02_1927,EMEM_140222,2021.2.3,60.0284775029457,
,,,stimControl/trialOrder_ver-1_block-1.xlsx,Relaxado,Familiar,positive,1,1,,,,,0,0,0,0,0,5,5,14,,,,,,,,,,,,,,,,,,,,,,,,,,,,,,,,,,,49.34161929995753,49.84149040002376,49.82460080005694,50.3251868999796,39.975310800014995,None,0,,49.82460080005694,49.34161929995753,43.95820100000128,1,1,1,1,1,2024_Aug_02_1927,EMEM_140222,2021.2.3,60.0284775029457,
,,,stimControl/trialOrder_ver-1_block-1.xlsx,Respeitador,Novel,positive,1,0,,,,,0,0,0,0,0,6,6,33,,,,,,,,,,,,,,,,,,,,,,,,,,,,,,,,,,,53.32501719996799,53.824845600058325,53.80788970005233,54.30824689997826,43.95881079998799,None,0,,53.80788970005233,53.32501719996799,47.93906380003318,1,1,1,1,1,2024_Aug_02_1927,EMEM_140222,2021.2.3,60.0284775029457,
,,,stimControl/trialOrder_ver-1_block-1.xlsx,Indelicado,Familiar,negative,1,1,,,,,0,0,0,0,0,7,7,4,,,,,,,,,,,,,,,,,,,,,,,,,,,,,,,,,,,57.30794900003821,57.80805270001292,57.791282900027,58.29111690004356,47.93934019992594,None,0,,57.791282900027,57.30794900003821,51.92455080000218,1,1,1,1,1,2024_Aug_02_1927,EMEM_140222,2021.2.3,60.0284775029457,
,,,stimControl/trialOrder_ver-1_block-1.xlsx,Preconceituoso,Novel,negative,1,0,,,,,0,0,0,0,0,8,8,27,,,,,,,,,,,,,,,,,,,,,,,,,,,,,,,,,,,61.2915248000063,61.79133250005543,61.774643899989314,62.27513560000807,51.92534339998383,None,0,,61.774643899989314,61.2915248000063,55.90798639995046,1,1,1,1,1,2024_Aug_02_1927,EMEM_140222,2021.2.3,60.0284775029457,
,,,stimControl/trialOrder_ver-1_block-1.xlsx,Decisivo,Familiar,positive,1,1,,,,,0,0,0,0,0,9,9,12,,,,,,,,,,,,,,,,,,,,,,,,,,,,,,,,,,,65.27703730005305,65.7913503999589,65.75793379999232,66.25791629997548,55.908430799958296,None,0,,65.75793379999232,65.27703730005305,59.891475899959914,1,1,1,1,1,2024_Aug_02_1927,EMEM_140222,2021.2.3,60.0284775029457,
,,,stimControl/trialOrder_ver-1_block-1.xlsx,Negligente,Novel,negative,1,0,,,,,0,0,0,0,0,10,10,29,,,,,,,,,,,,,,,,,,,,,,,,,,,,,,,,,,,69.25784670002759,69.75769430003129,69.7409878000617,70.24129499995615,59.8920101999538,None,0,,69.7409878000617,69.25784670002759,63.872873199987225,1,1,1,1,1,2024_Aug_02_1927,EMEM_140222,2021.2.3,60.0284775029457,
,,,stimControl/trialOrder_ver-1_block-1.xlsx,Ganancioso,Novel,negative,1,0,,,,,0,0,0,0,0,11,11,24,,,,,,,,,,,,,,,,,,,,,,,,,,,,,,,,,,,73.24082329997327,73.74127790005878,73.72425480000675,74.22455020004418,63.87310179998167,None,0,,73.72425480000675,73.24082329997327,67.85835879994556,1,1,1,1,1,2024_Aug_02_1927,EMEM_140222,2021.2.3,60.0284775029457,
,,,stimControl/trialOrder_ver-1_block-1.xlsx,Anti-social,Familiar,negative,1,1,,,,,0,0,0,0,0,12,12,3,,,,,,,,,,,,,,,,,,,,,,,,,,,,,,,,,,,77.22428730002139,77.72510120004881,77.70757750002667,78.20772209996358,67.85919959994499,None,0,,77.70757750002667,77.22428730002139,71.84104700002354,1,1,1,1,1,2024_Aug_02_1927,EMEM_140222,2021.2.3,60.0284775029457,
,,,stimControl/trialOrder_ver-1_block-1.xlsx,Gentil,Novel,positive,1,0,,,,,0,0,0,0,0,13,13,35,,,,,,,,,,,,,,,,,,,,,,,,,,,,,,,,,,,81.20787769998424,81.70736130001023,81.69057059998158,82.19055860000663,71.84170829993673,None,0,,81.69057059998158,81.20787769998424,75.8216257999884,1,1,1,1,1,2024_Aug_02_1927,EMEM_140222,2021.2.3,60.0284775029457,
,,,stimControl/trialOrder_ver-1_block-1.xlsx,Insultuoso,Familiar,negative,1,1,,,,,0,0,0,0,0,14,14,8,,,,,,,,,,,,,,,,,,,,,,,,,,,,,,,,,,,85.19023439998273,85.69034009997267,85.67359440005384,86.1734535000287,75.8218152000336,None,0,,85.67359440005384,85.19023439998273,79.80622040003072,1,1,1,1,1,2024_Aug_02_1927,EMEM_140222,2021.2.3,60.0284775029457,
,,,stimControl/trialOrder_ver-1_block-1.xlsx,Intolerante,Novel,negative,1,0,,,,,0,0,0,0,0,15,15,28,,,,,,,,,,,,,,,,,,,,,,,,,,,,,,,,,,,89.17429470003117,89.67507590004243,89.65739309997298,90.15734909998719,79.8066289999988,None,0,,89.65739309997298,89.17429470003117,83.78968589997385,1,1,1,1,1,2024_Aug_02_1927,EMEM_140222,2021.2.3,60.0284775029457,
,,,stimControl/trialOrder_ver-1_block-1.xlsx,Insatisfeito,Familiar,negative,1,1,,,,,0,0,0,0,0,16,16,6,,,,,,,,,,,,,,,,,,,,,,,,,,,,,,,,,,,93.1569897000445,93.65747600002214,93.64084340003319,94.14102490001824,83.79017049993854,None,0,,93.64084340003319,93.1569897000445,87.77362500003073,1,1,1,1,1,2024_Aug_02_1927,EMEM_140222,2021.2.3,60.0284775029457,
,,,stimControl/trialOrder_ver-1_block-1.xlsx,Bondoso,Novel,positive,1,0,,,,,0,0,0,0,0,17,17,37,,,,,,,,,,,,,,,,,,,,,,,,,,,,,,,,,,,97.1409879999701,97.64092869998422,97.6238822999876,98.12439350003842,87.77428419992793,None,0,,97.6238822999876,97.1409879999701,91.75768289994448,1,1,1,1,1,2024_Aug_02_1927,EMEM_140222,2021.2.3,60.0284775029457,
,,,stimControl/trialOrder_ver-1_block-1.xlsx,Bisbilhoteiro,Familiar,negative,1,1,,,,,0,0,0,0,0,18,18,5,,,,,,,,,,,,,,,,,,,,,,,,,,,,,,,,,,,101.12398439995013,101.62429569999222,101.60727300005965,102.10749209998176,91.75883429998066,None,0,,101.60727300005965,101.12398439995013,95.74079199996777,1,1,1,1,1,2024_Aug_02_1927,EMEM_140222,2021.2.3,60.0284775029457,
,,,stimControl/trialOrder_ver-1_block-1.xlsx,Sem vida,Familiar,negative,1,1,,,,,0,0,0,0,0,19,19,9,,,,,,,,,,,,,,,,,,,,,,,,,,,,,,,,,,,105.10742689995095,105.60746460000519,105.59060049999971,106.09098880004603,95.74215189996175,None,0,,105.59060049999971,105.10742689995095,99.72403569996823,1,1,1,1,1,2024_Aug_02_1927,EMEM_140222,2021.2.3,60.0284775029457,
,,,stimControl/trialOrder_ver-1_block-1.xlsx,Delicado,Novel,positive,1,0,,,,,0,0,0,0,0,20,20,30,,,,,,,,,,,,,,,,,,,,,,,,,,,,,,,,,,,109.09062060003635,109.5906497000251,109.57402659999207,110.07425369997509,99.72473489993718,None,0,,109.57402659999207,109.09062060003635,103.70735119993333,1,1,1,1,1,2024_Aug_02_1927,EMEM_140222,2021.2.3,60.0284775029457,
,,,stimControl/trialOrder_ver-1_block-1.xlsx,Inútil,Novel,negative,1,0,,,,,0,0,0,0,0,21,21,21,,,,,,,,,,,,,,,,,,,,,,,,,,,,,,,,,,,113.07407970004715,113.57391340006143,113.5571190000046,114.05736370000523,103.70785429992247,None,0,,113.5571190000046,113.07407970004715,107.69107009994332,1,1,1,1,1,2024_Aug_02_1927,EMEM_140222,2021.2.3,60.0284775029457,
,,,stimControl/trialOrder_ver-1_block-1.xlsx,Inteligente,Novel,positive,1,0,,,,,0,0,0,0,0,22,22,38,,,,,,,,,,,,,,,,,,,,,,,,,,,,,,,,,,,117.05712819995824,117.55720339994878,117.54072930000257,118.0406502999831,107.69176940002944,None,0,,117.54072930000257,117.05712819995824,111.67339529993478,1,1,1,1,1,2024_Aug_02_1927,EMEM_140222,2021.2.3,60.0284775029457,
,,,stimControl/trialOrder_ver-1_block-1.xlsx,Bom,Novel,positive,1,0,,,,,0,0,0,0,0,23,23,31,,,,,,,,,,,,,,,,,,,,,,,,,,,,,,,,,,,121.04069100006018,121.54079560004175,121.52393370005302,122.02413290005643,111.67432340001687,None,0,,121.52393370005302,121.04069100006018,115.6571042999858,1,1,1,1,1,2024_Aug_02_1927,EMEM_140222,2021.2.3,60.0284775029457,
,,,stimControl/trialOrder_ver-1_block-1.xlsx,Agradável,Familiar,positive,1,1,,,,,0,0,0,0,0,24,24,11,,,,,,,,,,,,,,,,,,,,,,,,,,,,,,,,,,,125.02394700003788,125.52381889999378,125.50704479997512,126.00728400005028,115.65770310000516,None,0,,125.50704479997512,125.02394700003788,119.64107100002002,1,1,1,1,1,2024_Aug_02_1927,EMEM_140222,2021.2.3,60.0284775029457,
,,,stimControl/trialOrder_ver-1_block-1.xlsx,Engenhoso,Familiar,positive,1,1,,,,,0,0,0,0,0,25,25,17,,,,,,,,,,,,,,,,,,,,,,,,,,,,,,,,,,,129.0070490000071,129.50704319996294,129.4902155000018,129.9904067000607,119.64159819995984,None,0,,129.4902155000018,129.0070490000071,123.6224737999728,1,1,1,1,1,2024_Aug_02_1927,EMEM_140222,2021.2.3,60.0284775029457,
,,,stimControl/trialOrder_ver-1_block-1.xlsx,Lúcido,Familiar,positive,1,1,,,,,0,0,0,0,0,26,26,15,,,,,,,,,,,,,,,,,,,,,,,,,,,,,,,,,,,132.99028060003184,133.49028809997253,133.47370660002343,133.9740099000046,123.6227122999262,None,0,,133.47370660002343,132.99028060003184,127.60653180000372,1,1,1,1,1,2024_Aug_02_1927,EMEM_140222,2021.2.3,60.0284775029457,
,,,stimControl/trialOrder_ver-1_block-1.xlsx,Corajoso,Novel,positive,1,0,,,,,0,0,0,0,0,27,27,32,,,,,,,,,,,,,,,,,,,,,,,,,,,,,,,,,,,136.97400879999623,137.47394199995324,137.45677859999705,137.95693920005579,127.60704129992519,None,0,,137.45677859999705,136.97400879999623,131.59099469997454,1,1,1,1,1,2024_Aug_02_1927,EMEM_140222,2021.2.3,60.0284775029457,
,,,stimControl/trialOrder_ver-1_block-1.xlsx,Interessante,Familiar,positive,1,1,,,,,0,0,0,0,0,28,28,16,,,,,,,,,,,,,,,,,,,,,,,,,,,,,,,,,,,140.95690410002135,141.45680809998885,141.44043920002878,141.9405544999754,131.5915063000284,None,0,,141.44043920002878,140.95690410002135,135.57294959994033,1,1,1,1,1,2024_Aug_02_1927,EMEM_140222,2021.2.3,60.0284775029457,
,,,stimControl/trialOrder_ver-1_block-1.xlsx,Agradecido,Familiar,positive,1,1,,,,,0,0,0,0,0,29,29,18,,,,,,,,,,,,,,,,,,,,,,,,,,,,,,,,,,,144.94016250001732,145.440261599957,145.42372730001807,145.92398630001117,135.57360539992806,None,0,,145.42372730001807,144.94016250001732,139.55500249995384,1,1,1,1,1,2024_Aug_02_1927,EMEM_140222,2021.2.3,60.0284775029457,
,,,stimControl/trialOrder_ver-1_block-1.xlsx,Mentiroso,Novel,negative,1,0,,,,,0,0,0,0,0,30,30,20,,,,,,,,,,,,,,,,,,,,,,,,,,,,,,,,,,,148.92350360006094,149.4237486999482,149.4068213000428,149.90684930002317,139.5554152999539,None,0,,149.4068213000428,148.92350360006094,143.53997149993666,1,1,1,1,1,2024_Aug_02_1927,EMEM_140222,2021.2.3,60.0284775029457,
,,,stimControl/trialOrder_ver-1_block-1.xlsx,Aborrecido,Novel,negative,1,0,,,,,0,0,0,0,0,31,31,22,,,,,,,,,,,,,,,,,,,,,,,,,,,,,,,,,,,152.90698339999653,153.40701720002107,153.3903099000454,153.890219300054,143.54062769992743,None,0,,153.3903099000454,152.90698339999653,147.52279009995982,1,1,1,1,1,2024_Aug_02_1927,EMEM_140222,2021.2.3,60.0284775029457,
,,,stimControl/trialOrder_ver-1_block-1.xlsx,Cordial,Novel,positive,1,0,,,,,0,0,0,0,0,32,32,34,,,,,,,,,,,,,,,,,,,,,,,,,,,,,,,,,,,156.89022950001527,157.39013529999647,157.3732642000541,157.87393110000994,147.52334730001166,None,0,,157.3732642000541,156.89022950001527,151.50633689993992,1,1,1,1,1,2024_Aug_02_1927,EMEM_140222,2021.2.3,60.0284775029457,
,,,stimControl/trialOrder_ver-1_block-1.xlsx,Desonesto,Familiar,negative,1,1,,,,,0,0,0,0,0,33,33,2,,,,,,,,,,,,,,,,,,,,,,,,,,,,,,,,,,,160.8737209000392,161.37391239998396,161.35660780000035,161.85671690001618,151.50685220002197,None,0,,161.35660780000035,160.8737209000392,155.49013099994045,1,1,1,1,1,2024_Aug_02_1927,EMEM_140222,2021.2.3,60.0284775029457,
,,,stimControl/trialOrder_ver-1_block-1.xlsx,Sociável,Familiar,positive,1,1,,,,,0,0,0,0,0,34,34,13,,,,,,,,,,,,,,,,,,,,,,,,,,,,,,,,,,,164.85664420004468,165.35663779999595,165.33973230002448,165.8399070999585,155.49086399993394,None,0,,165.33973230002448,164.85664420004468,159.4733414000366,1,1,1,1,1,2024_Aug_02_1927,EMEM_140222,2021.2.3,60.0284775029457,
,,,stimControl/trialOrder_ver-1_block-1.xlsx,Snob,Novel,negative,1,0,,,,,0,0,0,0,0,35,35,25,,,,,,,,,,,,,,,,,,,,,,,,,,,,,,,,,,,168.83964829996694,169.33993290003855,169.32332880003378,169.82351849996485,159.47392279992346,None,0,,169.32332880003378,168.83964829996694,163.4563163999701,1,1,1,1,1,2024_Aug_02_1927,EMEM_140222,2021.2.3,60.0284775029457,
,,,stimControl/trialOrder_ver-1_block-1.xlsx,Generoso,Novel,positive,1,0,,,,,0,0,0,0,0,36,36,36,,,,,,,,,,,,,,,,,,,,,,,,,,,,,,,,,,,172.82365070004016,173.32305380003527,173.306389400037,173.80669460003264,163.45696229999885,None,0,,173.306389400037,172.82365070004016,167.4396760999225,1,1,1,1,1,2024_Aug_02_1927,EMEM_140222,2021.2.3,60.0284775029457,
,,,stimControl/trialOrder_ver-1_block-1.xlsx,Mau,Novel,negative,1,0,,,,,0,0,0,0,0,37,37,23,,,,,,,,,,,,,,,,,,,,,,,,,,,,,,,,,,,176.80657420004718,177.3066021000268,177.2898133000126,177.7899401000468,167.44041759998072,None,0,,177.2898133000126,176.80657420004718,171.4212178000016,1,1,1,1,1,2024_Aug_02_1927,EMEM_140222,2021.2.3,60.0284775029457,
,,,stimControl/trialOrder_ver-1_block-1.xlsx,Amável,Familiar,positive,1,1,,,,,0,0,0,0,0,38,38,10,,,,,,,,,,,,,,,,,,,,,,,,,,,,,,,,,,,180.78935049998108,181.28958099999,181.27317729999777,181.77352150005754,171.4213894000277,None,0,,181.27317729999777,180.78935049998108,175.40630879998207,1,1,1,1,1,2024_Aug_02_1927,EMEM_140222,2021.2.3,60.0284775029457,
,,,stimControl/trialOrder_ver-1_block-1.xlsx,Compreensivo,Familiar,positive,1,1,,,,,0,0,0,0,0,39,39,19,,,,,,,,,,,,,,,,,,,,,,,,,,,,,,,,,,,184.77321160002612,185.27345670002978,185.25616930006072,185.7565802000463,175.4068495000247,None,0,,185.25616930006072,184.77321160002612,179.38934759993572,1,1,1,1,1,2024_Aug_02_1927,EMEM_140222,2021.2.3,60.0284775029457,
