key_disp,resp_disp,key_inp,trialOrderFile,im_stimNo,im_face_name_top,im_face_name_bottom,im_face_path,im_face_mask_path,im_dot_path,im_emo_top,im_emo_bottom,im_dot_direc,im_dot_loc,key_correct,loop_checkKeyMap.thisRepN,loop_checkKeyMap.thisTrialN,loop_checkKeyMap.thisN,loop_checkKeyMap.thisIndex,loop_block.thisRepN,loop_block.thisTrialN,loop_block.thisN,loop_block.thisIndex,loop_trials.thisRepN,loop_trials.thisTrialN,loop_trials.thisN,loop_trials.thisIndex,time_expBegin,txt_checkFiles_start.started,txt_checkFiles_start.stopped,txt_checkFiles_end.started,txt_checkFiles_end.stopped,key_checkFilesCompleteAccept.keys,key_checkFilesCompleteAccept.rt,key_checkFilesCompleteAccept.started,key_checkFilesCompleteAccept.stopped,txt_resFileClashWarn.started,txt_resFileClashWarn.stopped,key_resp_resClash.keys,key_resp_resClash.started,key_resp_resClash.stopped,str_keyInst_pract.started,str_keyInst_pract.stopped,key_startTask_pract.keys,key_startTask_pract.rt,key_startTask_pract.started,key_startTask_pract.stopped,txt_checkKeyMap.started,txt_checkKeyMap.stopped,key_resp_checkKeyMap.keys,key_resp_checkKeyMap.rt,key_resp_checkKeyMap.started,key_resp_checkKeyMap.stopped,text_checkKeyMapComplete.started,text_checkKeyMapComplete.stopped,key_beginTrials.keys,key_beginTrials.rt,key_beginTrials.started,key_beginTrials.stopped,text_getReady.started,text_getReady.stopped,time_trialBegin,txt_fix.started,txt_fix.stopped,im_trialFace.started,im_trialFace.stopped,im_trialFace_mask.started,im_trialFace_mask.stopped,Im_dot.started,Im_dot.stopped,key_respTrial.keys,key_respTrial.corr,key_respTrial.rt,key_respTrial.started,key_respTrial.stopped,time_trialEnd,str_rest.started,str_rest.stopped,key_endRest.keys,key_endRest.rt,key_endRest.started,key_endRest.stopped,time_restBegin,time_restEnd,Study Code,Participant ID,Researcher Name,Research Visit Number,Task Version Number,date,expName,psychopyVersion,frameRate,
,,,,,,,,,,,,,,,,,,,,,,,,,,,9.79999458650127e-06,18.225275899996632,None,20.22095629999967,None,space,0.6826115000003483,20.22095629999967,None,,,,,,,,,,,,,,,,,,,,,,,,,,,,,,,,,,,,,,,,,,,,,,,,,1,1,1,1,1,2024_Aug_03_1038,FDOT_140222,2021.2.3,60.05861721013985,
,,,,,,,,,,,,,,,,,,,,,,,,,,,,,,,,,,,,None,None,None,None,None,,,,,,,,,,,,,,,,,,,,,,,,,,,,,,,,,,,,,,,,,,,,1,1,1,1,1,2024_Aug_03_1038,FDOT_140222,2021.2.3,60.05861721013985,
,,,,,,,,,,,,,,,,,,,,,,,,,,,,,,,,,,,,,,,,,20.97115759999724,None,space,21.327097399997,20.97115759999724,None,,,,,,,,,,,,,,,,,,,,,,,,,,,,,,,,,,,,,,1,1,1,1,1,2024_Aug_03_1038,FDOT_140222,2021.2.3,60.05861721013985,
A,..,a,,,,,,,,,,,,,0,0,0,0,,,,,,,,,,,,,,,,,,,,,,,,,,,,,42.330973999996786,None,a,21.980572100001154,42.330973999996786,None,,,,,,,,,,,,,,,,,,,,,,,,,,,,,,,,1,1,1,1,1,2024_Aug_03_1038,FDOT_140222,2021.2.3,60.05861721013985,
K,:,k,,,,,,,,,,,,,0,1,1,1,,,,,,,,,,,,,,,,,,,,,,,,,,,,,64.34276320000208,None,k,1.5967815999974846,64.34276320000208,None,,,,,,,,,,,,,,,,,,,,,,,,,,,,,,,,1,1,1,1,1,2024_Aug_03_1038,FDOT_140222,2021.2.3,60.05861721013985,
,,,,,,,,,,,,,,,,,,,,,,,,,,,,,,,,,,,,,,,,,,,,,,,,,,,,,65.96990299999743,None,space,7.5298190000030445,65.96990299999743,None,,,,,,,,,,,,,,,,,,,,,,,,,,1,1,1,1,1,2024_Aug_03_1038,FDOT_140222,2021.2.3,60.05861721013985,
,,,stimControl/trialOrder_ver-1_block-pract.xlsx,1,hapHF,neutHF,ImagesToUse/HN6.bmp,ImagesToUse/HN6.bmp,ImagesToUse/UPB.bmp,happy,neutral,vert,bottom,k,,,,,0,0,0,0,0,0,0,0,,,,,,,,,,,,,,,,,,,,,,,,,,,,,,,,,73.52643250000256,None,58.341472199994314,75.54805119999946,76.55358310000156,76.54287459999614,76.55358310000156,76.55358310000156,76.63684549999743,76.63684549999743,None,k,1,0.8213731000068947,76.63684549999743,None,59.28546780000033,,,,,,,,,1,1,1,1,1,2024_Aug_03_1038,FDOT_140222,2021.2.3,60.05861721013985,
,,,stimControl/trialOrder_ver-1_block-pract.xlsx,2,neutLK,hapLK,ImagesToUse/NH8.bmp,ImagesToUse/NH8.bmp,ImagesToUse/DOWNT.bmp,neutral,happy,horz,top,a,,,,,0,0,0,0,0,1,1,1,,,,,,,,,,,,,,,,,,,,,,,,,,,,,,,,,,,60.28611999999703,77.49186560000089,78.50350279999839,78.4700245999993,78.4873133000001,78.4873133000001,78.57005950000166,78.57005950000166,None,a,1,1.324681199999759,78.57005950000166,None,61.71834680000029,,,,,,,,,1,1,1,1,1,2024_Aug_03_1038,FDOT_140222,2021.2.3,60.05861721013985,
,,,stimControl/trialOrder_ver-1_block-pract.xlsx,3,fearAM,neutAM,ImagesToUse/FN7.bmp,ImagesToUse/jumbledmask1.bmp,ImagesToUse/DOWNT.bmp,fear,neutral,horz,top,a,,,,,0,0,0,0,0,2,2,2,,,,,,,,,,,,,,,,,,,,,,,,,,,,,,,,,,,62.71907519999513,79.92430400000012,80.936901699999,80.92004569999699,80.936901699999,80.936901699999,81.01970250000159,81.01970250000159,None,a,1,0.6830532000021776,81.01970250000159,None,63.51845150000008,,,,,,,,,1,1,1,1,1,2024_Aug_03_1038,FDOT_140222,2021.2.3,60.05861721013985,
,,,stimControl/trialOrder_ver-1_block-pract.xlsx,4,neutLK,neutLK,ImagesToUse/NN8.bmp,ImagesToUse/jumbledmask1.bmp,ImagesToUse/DOWNB.bmp,neutral,neutral,horz,bottom,a,,,,,0,0,0,0,0,3,3,3,,,,,,,,,,,,,,,,,,,,,,,,,,,,,,,,,,,64.51930599999469,81.72610339999665,82.73679149999953,82.70350859999598,82.72011490000295,82.72011490000295,82.80356149999716,82.80356149999716,None,a,1,1.1232614000036847,82.80356149999716,None,65.75192319999769,,,,,,,,,1,1,1,1,1,2024_Aug_03_1038,FDOT_140222,2021.2.3,60.05861721013985,
,,,stimControl/trialOrder_ver-1_block-1.xlsx,1,neutHU,neutHU,ImagesToUse/NN6.bmp,ImagesToUse/NN6.bmp,ImagesToUse/UPB.bmp,neutral,neutral,vert,bottom,k,,,,,0,1,1,1,0,0,0,0,,,,,,,,,,,,,,,,,,,,,,,,,,,,,,,,,85.38628369999788,None,70.20672969999578,87.4135518999974,88.42016809999768,88.40341900000203,88.42016809999768,88.42016809999768,88.50340549999964,88.50340549999964,None,a,0,0.9332643000016105,88.50340549999964,None,71.2531730999981,83.96124659999623,None,space,1.4082992000039667,83.96124659999623,None,65.76502139999502,67.18521930000134,1,1,1,1,1,2024_Aug_03_1038,FDOT_140222,2021.2.3,60.05861721013985,
,,,stimControl/trialOrder_ver-1_block-1.xlsx,2,neutDT,fearDT,ImagesToUse/NF8.bmp,ImagesToUse/NF8.bmp,ImagesToUse/UPT.bmp,neutral,fear,vert,top,k,,,,,0,1,1,1,0,1,1,1,,,,,,,,,,,,,,,,,,,,,,,,,,,,,,,,,,,72.25390689999767,89.47590579999815,90.48681829999987,90.45347320000292,90.4700223999971,90.4700223999971,90.5537267999971,90.5537267999971,None,k,1,1.5298821000033058,90.5537267999971,None,73.90026499999658,,,,,,,,,1,1,1,1,1,2024_Aug_03_1038,FDOT_140222,2021.2.3,60.05861721013985,
,,,stimControl/trialOrder_ver-1_block-1.xlsx,3,fearSG,neutSG,ImagesToUse/FN1.bmp,ImagesToUse/FN1.bmp,ImagesToUse/DOWNT.bmp,fear,neutral,horz,top,a,,,,,0,1,1,1,0,2,2,2,,,,,,,,,,,,,,,,,,,,,,,,,,,,,,,,,,,74.9008876999942,92.11497360000067,93.12006470000051,93.10342639999726,93.12006470000051,93.12006470000051,93.20378840000194,93.20378840000194,None,a,1,1.2194770999994944,93.20378840000194,None,76.25325509999675,,,,,,,,,1,1,1,1,1,2024_Aug_03_1038,FDOT_140222,2021.2.3,60.05861721013985,
,,,stimControl/trialOrder_ver-1_block-1.xlsx,4,fearJL,neutJL,ImagesToUse/FN2.bmp,ImagesToUse/FN2.bmp,ImagesToUse/DOWNB.bmp,fear,neutral,horz,bottom,a,,,,,0,1,1,1,0,3,3,3,,,,,,,,,,,,,,,,,,,,,,,,,,,,,,,,,,,77.25443149999774,94.46715250000125,95.46981660000165,95.46981660000165,95.48688219999894,95.48688219999894,95.57003709999844,95.57003709999844,None,a,1,1.1768325000011828,95.57003709999844,None,78.5702089999977,,,,,,,,,1,1,1,1,1,2024_Aug_03_1038,FDOT_140222,2021.2.3,60.05861721013985,
,,,stimControl/trialOrder_ver-1_block-1.xlsx,5,fearKB,neutKB,ImagesToUse/FN3.bmp,ImagesToUse/FN3.bmp,ImagesToUse/UPB.bmp,fear,neutral,vert,bottom,k,,,,,0,1,1,1,0,4,4,4,,,,,,,,,,,,,,,,,,,,,,,,,,,,,,,,,,,79.57112000000052,96.78501179999876,97.7867527999988,97.7867527999988,97.80324200000177,97.80324200000177,97.88640509999823,97.88640509999823,None,k,1,1.1214983000027132,97.88640509999823,None,80.83437549999508,,,,,,,,,1,1,1,1,1,2024_Aug_03_1038,FDOT_140222,2021.2.3,60.05861721013985,
,,,stimControl/trialOrder_ver-1_block-1.xlsx,6,neutRH,neutRH,ImagesToUse/NN2.bmp,ImagesToUse/NN2.bmp,ImagesToUse/DOWNB.bmp,neutral,neutral,horz,bottom,a,,,,,0,1,1,1,0,5,5,5,,,,,,,,,,,,,,,,,,,,,,,,,,,,,,,,,,,81.83524049999687,99.04802460000064,100.05356420000317,100.03647600000113,100.05356420000317,100.05356420000317,100.136737300003,100.136737300003,None,k,0,1.4614154000009876,100.136737300003,None,83.4177309000006,,,,,,,,,1,1,1,1,1,2024_Aug_03_1038,FDOT_140222,2021.2.3,60.05861721013985,
,,,stimControl/trialOrder_ver-1_block-1.xlsx,7,neutEG,neutEG,ImagesToUse/NN4.bmp,ImagesToUse/NN4.bmp,ImagesToUse/UPT.bmp,neutral,neutral,vert,top,k,,,,,0,1,1,1,0,6,6,6,,,,,,,,,,,,,,,,,,,,,,,,,,,,,,,,,,,84.41840299999603,101.63191509999888,102.63656020000053,102.61997900000279,102.63656020000053,102.63656020000053,102.72009589999652,102.72009589999652,None,k,1,1.4228974000070593,102.72009589999652,None,85.96832979999454,,,,,,,,,1,1,1,1,1,2024_Aug_03_1038,FDOT_140222,2021.2.3,60.05861721013985,
,,,stimControl/trialOrder_ver-1_block-1.xlsx,8,hapDL,neutDL,ImagesToUse/HN5.bmp,ImagesToUse/HN5.bmp,ImagesToUse/DOWNB.bmp,happy,neutral,horz,bottom,a,,,,,0,1,1,1,0,7,7,7,,,,,,,,,,,,,,,,,,,,,,,,,,,,,,,,,,,86.96918249999726,104.18502369999624,105.18654699999752,105.18654699999752,105.20340009999927,105.20340009999927,105.28666839999642,105.28666839999642,None,a,1,1.142896599994856,105.28666839999642,None,88.25176600000123,,,,,,,,,1,1,1,1,1,2024_Aug_03_1038,FDOT_140222,2021.2.3,60.05861721013985,
,,,stimControl/trialOrder_ver-1_block-1.xlsx,9,neutDM,neutDM,ImagesToUse/NN5.bmp,ImagesToUse/NN5.bmp,ImagesToUse/UPT.bmp,neutral,neutral,vert,top,k,,,,,0,1,1,1,0,8,8,8,,,,,,,,,,,,,,,,,,,,,,,,,,,,,,,,,,,89.25264739999693,106.46622129999741,107.46984789999988,107.45314030000009,107.46984789999988,107.46984789999988,107.55314050000015,107.55314050000015,None,k,1,1.582443899998907,107.55314050000015,None,90.95098159999907,,,,,,,,,1,1,1,1,1,2024_Aug_03_1038,FDOT_140222,2021.2.3,60.05861721013985,
,,,stimControl/trialOrder_ver-1_block-1.xlsx,10,hapTA,neutTA,ImagesToUse/HN4.bmp,ImagesToUse/HN4.bmp,ImagesToUse/DOWNT.bmp,happy,neutral,horz,top,a,,,,,0,1,1,1,0,9,9,9,,,,,,,,,,,,,,,,,,,,,,,,,,,,,,,,,,,91.95176720000018,109.16842689999612,110.16973690000304,110.16973690000304,110.186549500002,110.186549500002,110.26988960000017,110.26988960000017,None,a,1,1.3227097999988473,110.26988960000017,None,93.41813579999871,,,,,,,,,1,1,1,1,1,2024_Aug_03_1038,FDOT_140222,2021.2.3,60.05861721013985,
,,,stimControl/trialOrder_ver-1_block-1.xlsx,11,neutHF,hapHF,ImagesToUse/NH6.bmp,ImagesToUse/NH6.bmp,ImagesToUse/UPB.bmp,neutral,happy,vert,bottom,k,,,,,0,1,1,1,0,10,10,10,,,,,,,,,,,,,,,,,,,,,,,,,,,,,,,,,,,94.41888140000083,111.63158680000197,112.63627039999847,112.61962369999674,112.63627039999847,112.63627039999847,112.71971699999995,112.71971699999995,None,k,1,1.3975285999986227,112.71971699999995,None,95.93496229999437,,,,,,,,,1,1,1,1,1,2024_Aug_03_1038,FDOT_140222,2021.2.3,60.05861721013985,
,,,stimControl/trialOrder_ver-1_block-1.xlsx,12,neutAM,fearAM,ImagesToUse/NF7.bmp,ImagesToUse/NF7.bmp,ImagesToUse/DOWNT.bmp,neutral,fear,horz,top,a,,,,,0,1,1,1,0,11,11,11,,,,,,,,,,,,,,,,,,,,,,,,,,,,,,,,,,,96.93587869999465,114.15272730000288,115.15315540000302,115.15315540000302,115.16972230000101,115.16972230000101,115.25335900000209,115.25335900000209,None,a,1,1.3638772000049357,115.25335900000209,None,98.43452959999559,,,,,,,,,1,1,1,1,1,2024_Aug_03_1038,FDOT_140222,2021.2.3,60.05861721013985,
,,,stimControl/trialOrder_ver-1_block-1_masked.xlsx,1,neutHU,neutHU,ImagesToUse/NN6.bmp,ImagesToUse/jumbledmask1.bmp,ImagesToUse/UPB.bmp,neutral,neutral,vert,bottom,k,,,,,0,2,2,2,0,0,0,0,,,,,,,,,,,,,,,,,,,,,,,,,,,,,,,,,118.30254989999958,None,103.12150039999688,120.3246347000022,121.33627349999733,121.30316529999982,121.31971679999697,121.31971679999697,121.40310519999912,121.40310519999912,None,k,1,1.4224193999980344,121.40310519999912,None,104.65263889999915,116.64595510000072,None,space,1.6343620999978157,116.64595510000072,None,98.44932759999938,100.1013254999998,1,1,1,1,1,2024_Aug_03_1038,FDOT_140222,2021.2.3,60.05861721013985,
,,,stimControl/trialOrder_ver-1_block-1_masked.xlsx,2,neutDT,fearDT,ImagesToUse/NF8.bmp,ImagesToUse/jumbledmask1.bmp,ImagesToUse/UPT.bmp,neutral,fear,vert,top,k,,,,,0,2,2,2,0,1,1,1,,,,,,,,,,,,,,,,,,,,,,,,,,,,,,,,,,,105.6534307999973,122.86170459999994,123.86968820000038,123.85317270000087,123.86968820000038,123.86968820000038,123.95306130000245,123.95306130000245,None,k,1,0.7409054999952787,123.95306130000245,None,106.51823560000048,,,,,,,,,1,1,1,1,1,2024_Aug_03_1038,FDOT_140222,2021.2.3,60.05861721013985,
,,,stimControl/trialOrder_ver-1_block-1_masked.xlsx,3,fearSG,neutSG,ImagesToUse/FN1.bmp,ImagesToUse/jumbledmask1.bmp,ImagesToUse/DOWNT.bmp,fear,neutral,horz,top,a,,,,,0,2,2,2,0,2,2,2,,,,,,,,,,,,,,,,,,,,,,,,,,,,,,,,,,,107.51903889999812,124.72762749999674,125.73599300000205,125.71949380000297,125.73599300000205,125.73599300000205,125.81951480000134,125.81951480000134,None,a,1,0.8090871000022162,125.81951480000134,None,108.45165429999906,,,,,,,,,1,1,1,1,1,2024_Aug_03_1038,FDOT_140222,2021.2.3,60.05861721013985,
,,,stimControl/trialOrder_ver-1_block-1_masked.xlsx,4,fearJL,neutJL,ImagesToUse/FN2.bmp,ImagesToUse/jumbledmask1.bmp,ImagesToUse/DOWNB.bmp,fear,neutral,horz,bottom,a,,,,,0,2,2,2,0,3,3,3,,,,,,,,,,,,,,,,,,,,,,,,,,,,,,,,,,,109.45257259999926,126.66021909999836,127.66957769999863,127.65310409999802,127.66957769999863,127.66957769999863,127.75301899999613,127.75301899999613,None,a,1,0.6923192000031122,127.75301899999613,None,110.26799000000028,,,,,,,,,1,1,1,1,1,2024_Aug_03_1038,FDOT_140222,2021.2.3,60.05861721013985,
,,,stimControl/trialOrder_ver-1_block-1_masked.xlsx,5,fearKB,neutKB,ImagesToUse/FN3.bmp,ImagesToUse/jumbledmask1.bmp,ImagesToUse/UPB.bmp,fear,neutral,vert,bottom,k,,,,,0,2,2,2,0,4,4,4,,,,,,,,,,,,,,,,,,,,,,,,,,,,,,,,,,,111.26887229999556,128.47534409999935,129.486490700001,129.4697554000013,129.486490700001,129.4697554000013,129.5529663999987,129.5529663999987,None,a,0,1.5458880000005593,129.5529663999987,None,112.91792429999623,,,,,,,,,1,1,1,1,1,2024_Aug_03_1038,FDOT_140222,2021.2.3,60.05861721013985,
,,,stimControl/trialOrder_ver-1_block-1_masked.xlsx,6,neutRH,neutRH,ImagesToUse/NN2.bmp,ImagesToUse/jumbledmask1.bmp,ImagesToUse/DOWNB.bmp,neutral,neutral,horz,bottom,a,,,,,0,2,2,2,0,5,5,5,,,,,,,,,,,,,,,,,,,,,,,,,,,,,,,,,,,113.91902009999467,131.12608290000207,132.1364986999979,132.1197400000019,132.1364986999979,132.1364986999979,132.2197129999986,132.2197129999986,None,a,1,1.1867554999989807,132.2197129999986,None,115.23448249999637,,,,,,,,,1,1,1,1,1,2024_Aug_03_1038,FDOT_140222,2021.2.3,60.05861721013985,
,,,stimControl/trialOrder_ver-1_block-1_masked.xlsx,7,neutEG,neutEG,ImagesToUse/NN4.bmp,ImagesToUse/jumbledmask1.bmp,ImagesToUse/UPT.bmp,neutral,neutral,vert,top,k,,,,,0,2,2,2,0,6,6,6,,,,,,,,,,,,,,,,,,,,,,,,,,,,,,,,,,,116.23524959999486,133.44185319999815,134.4527431000024,134.41948569999659,134.43665989999863,134.43665989999863,134.5195989999993,134.5195989999993,None,k,1,1.1391336000015144,134.5195989999993,None,117.4853335000007,,,,,,,,,1,1,1,1,1,2024_Aug_03_1038,FDOT_140222,2021.2.3,60.05861721013985,
,,,stimControl/trialOrder_ver-1_block-1_masked.xlsx,8,hapDL,neutDL,ImagesToUse/HN5.bmp,ImagesToUse/jumbledmask1.bmp,ImagesToUse/DOWNB.bmp,happy,neutral,horz,bottom,a,,,,,0,2,2,2,0,7,7,7,,,,,,,,,,,,,,,,,,,,,,,,,,,,,,,,,,,118.48632219999854,135.69521330000134,136.70323149999604,136.6863830000002,136.70323149999604,136.70323149999604,136.78639110000222,136.78639110000222,None,a,1,1.1469576000017696,136.78639110000222,None,119.75051040000108,,,,,,,,,1,1,1,1,1,2024_Aug_03_1038,FDOT_140222,2021.2.3,60.05861721013985,
,,,stimControl/trialOrder_ver-1_block-1_masked.xlsx,9,neutDM,neutDM,ImagesToUse/NN5.bmp,ImagesToUse/jumbledmask1.bmp,ImagesToUse/UPT.bmp,neutral,neutral,vert,top,k,,,,,0,2,2,2,0,8,8,8,,,,,,,,,,,,,,,,,,,,,,,,,,,,,,,,,,,120.75133389999974,137.95892430000094,138.96947809999983,138.95302249999804,138.96947809999983,138.96947809999983,139.05284940000274,139.05284940000274,None,k,1,1.3274964000011096,139.05284940000274,None,122.20107819999976,,,,,,,,,1,1,1,1,1,2024_Aug_03_1038,FDOT_140222,2021.2.3,60.05861721013985,
,,,stimControl/trialOrder_ver-1_block-1_masked.xlsx,10,hapTA,neutTA,ImagesToUse/HN4.bmp,ImagesToUse/jumbledmask1.bmp,ImagesToUse/DOWNT.bmp,happy,neutral,horz,top,a,,,,,0,2,2,2,0,9,9,9,,,,,,,,,,,,,,,,,,,,,,,,,,,,,,,,,,,123.20186609999655,140.41058519999933,141.41947159999836,141.40296800000215,141.41947159999836,141.41947159999836,141.5028760999994,141.5028760999994,None,a,1,0.7651449999975739,141.5028760999994,None,124.08411049999995,,,,,,,,,1,1,1,1,1,2024_Aug_03_1038,FDOT_140222,2021.2.3,60.05861721013985,
,,,stimControl/trialOrder_ver-1_block-1_masked.xlsx,11,neutHF,hapHF,ImagesToUse/NH6.bmp,ImagesToUse/jumbledmask1.bmp,ImagesToUse/UPB.bmp,neutral,happy,vert,bottom,k,,,,,0,2,2,2,0,10,10,10,,,,,,,,,,,,,,,,,,,,,,,,,,,,,,,,,,,125.08513120000134,142.29170039999735,143.30268600000272,143.2864810999963,143.30268600000272,143.2864810999963,143.36950159999833,143.36950159999833,None,k,1,1.6310458000007202,143.36950159999833,None,126.8170100999996,,,,,,,,,1,1,1,1,1,2024_Aug_03_1038,FDOT_140222,2021.2.3,60.05861721013985,
,,,stimControl/trialOrder_ver-1_block-1_masked.xlsx,12,neutAM,fearAM,ImagesToUse/NF7.bmp,ImagesToUse/jumbledmask1.bmp,ImagesToUse/DOWNT.bmp,neutral,fear,horz,top,a,,,,,0,2,2,2,0,11,11,11,,,,,,,,,,,,,,,,,,,,,,,,,,,,,,,,,,,127.81770179999876,145.02437839999766,146.03635629999917,146.01939459999994,146.03635629999917,146.03635629999917,146.11953150000045,146.11953150000045,None,a,1,1.2283933999933652,146.11953150000045,None,129.16734259999794,,,,,,,,,1,1,1,1,1,2024_Aug_03_1038,FDOT_140222,2021.2.3,60.05861721013985,
,,,stimControl/trialOrder_ver-1_block-2.xlsx,1,neutJL,hapJL,ImagesToUse/NH7.bmp,ImagesToUse/NH7.bmp,ImagesToUse/DOWNB.bmp,neutral,happy,horz,bottom,a,,,,,0,3,3,3,0,0,0,0,,,,,,,,,,,,,,,,,,,,,,,,,,,,,,,,,150.40231530000165,None,135.2240915000002,152.43203630000062,153.43603939999593,153.4192905000018,153.43603939999593,153.43603939999593,153.51932130000205,153.51932130000205,None,a,1,1.0879944000043906,153.51932130000205,None,136.43454719999863,147.36894010000105,None,space,3.002479399998265,147.36894010000105,None,129.16772489999857,132.19978999999876,1,1,1,1,1,2024_Aug_03_1038,FDOT_140222,2021.2.3,60.05861721013985,
,,,stimControl/trialOrder_ver-1_block-2.xlsx,2,neutJL,neutJL,ImagesToUse/NN7.bmp,ImagesToUse/NN7.bmp,ImagesToUse/DOWNT.bmp,neutral,neutral,horz,top,a,,,,,0,3,3,3,0,1,1,1,,,,,,,,,,,,,,,,,,,,,,,,,,,,,,,,,,,137.4354602999956,154.6473881999991,155.65294469999935,155.63609239999641,155.65294469999935,155.65294469999935,155.73605520000274,155.73605520000274,None,a,1,1.4062369000021135,155.73605520000274,None,138.96687440000096,,,,,,,,,1,1,1,1,1,2024_Aug_03_1038,FDOT_140222,2021.2.3,60.05861721013985,
,,,stimControl/trialOrder_ver-1_block-2.xlsx,3,hapDG,neutDG,ImagesToUse/HN1.bmp,ImagesToUse/HN1.bmp,ImagesToUse/UPB.bmp,happy,neutral,vert,bottom,k,,,,,0,3,3,3,0,2,2,2,,,,,,,,,,,,,,,,,,,,,,,,,,,,,,,,,,,139.96768280000106,157.18064250000316,158.18647220000275,158.16923959999986,158.18647220000275,158.18647220000275,158.2860320999971,158.26939349999884,None,k,1,1.4432967000029748,158.26939349999884,None,141.5348417999994,,,,,,,,,1,1,1,1,1,2024_Aug_03_1038,FDOT_140222,2021.2.3,60.05861721013985,
,,,stimControl/trialOrder_ver-1_block-2.xlsx,4,fearHU,neutHU,ImagesToUse/FN6.bmp,ImagesToUse/FN6.bmp,ImagesToUse/DOWNB.bmp,fear,neutral,horz,bottom,a,,,,,0,3,3,3,0,3,3,3,,,,,,,,,,,,,,,,,,,,,,,,,,,,,,,,,,,142.53580939999665,159.74955639999826,160.75275189999957,160.75275189999957,160.76924880000297,160.75275189999957,160.83593870000186,160.85252039999614,None,a,1,1.2594144999966375,160.85252039999614,None,143.93415339999774,,,,,,,,,1,1,1,1,1,2024_Aug_03_1038,FDOT_140222,2021.2.3,60.05861721013985,
,,,stimControl/trialOrder_ver-1_block-2.xlsx,5,neutSB,fearSB,ImagesToUse/NF4.bmp,ImagesToUse/NF4.bmp,ImagesToUse/UPB.bmp,neutral,fear,vert,bottom,k,,,,,0,3,3,3,0,4,4,4,,,,,,,,,,,,,,,,,,,,,,,,,,,,,,,,,,,144.93504449999455,162.15004439999757,163.15289569999732,163.15289569999732,163.1691970000029,163.15289569999732,163.23630659999617,163.23630659999617,None,a,0,1.0242510000025504,163.23630659999617,None,146.08575639999617,,,,,,,,,1,1,1,1,1,2024_Aug_03_1038,FDOT_140222,2021.2.3,60.05861721013985,
,,,stimControl/trialOrder_ver-1_block-2.xlsx,6,neutGM,neutGM,ImagesToUse/NN3.bmp,ImagesToUse/NN3.bmp,ImagesToUse/DOWNB.bmp,neutral,neutral,horz,bottom,a,,,,,0,3,3,3,0,5,5,5,,,,,,,,,,,,,,,,,,,,,,,,,,,,,,,,,,,147.08651009999448,164.30140650000249,165.30278289999842,165.30278289999842,165.319259099997,165.319259099997,165.40253839999787,165.40253839999787,None,a,1,0.8669900000022608,165.40253839999787,None,148.08511039999576,,,,,,,,,1,1,1,1,1,2024_Aug_03_1038,FDOT_140222,2021.2.3,60.05861721013985,
,,,stimControl/trialOrder_ver-1_block-2.xlsx,7,neutJL,neutJL,ImagesToUse/NN7.bmp,ImagesToUse/NN7.bmp,ImagesToUse/UPB.bmp,neutral,neutral,vert,bottom,k,,,,,0,3,3,3,0,6,6,6,,,,,,,,,,,,,,,,,,,,,,,,,,,,,,,,,,,149.08600009999645,166.29252579999593,167.3026019999961,167.28596619999735,167.3026019999961,167.3026019999961,167.38617050000175,167.38617050000175,None,k,1,0.8779737000004388,167.38617050000175,None,150.0838631000006,,,,,,,,,1,1,1,1,1,2024_Aug_03_1038,FDOT_140222,2021.2.3,60.05861721013985,
,,,stimControl/trialOrder_ver-1_block-2.xlsx,8,fearDM,neutDM,ImagesToUse/FN5.bmp,ImagesToUse/FN5.bmp,ImagesToUse/UPT.bmp,fear,neutral,vert,top,k,,,,,0,3,3,3,0,7,7,7,,,,,,,,,,,,,,,,,,,,,,,,,,,,,,,,,,,151.0846636999995,168.29953530000057,169.30277770000248,169.2859141000008,169.30277770000248,169.30277770000248,169.38592860000063,169.38592860000063,None,k,1,0.8114902000015718,169.38592860000063,None,152.01696639999864,,,,,,,,,1,1,1,1,1,2024_Aug_03_1038,FDOT_140222,2021.2.3,60.05861721013985,
,,,stimControl/trialOrder_ver-1_block-2.xlsx,9,neutES2,neutES1,ImagesToUse/NN1.bmp,ImagesToUse/NN1.bmp,ImagesToUse/DOWNT.bmp,neutral,neutral,horz,top,a,,,,,0,3,3,3,0,8,8,8,,,,,,,,,,,,,,,,,,,,,,,,,,,,,,,,,,,153.0176386999956,170.23195390000183,171.23589319999883,171.21902039999986,171.23589319999883,171.23589319999883,171.319107000003,171.319107000003,None,a,1,1.0521742999990238,171.319107000003,None,154.2010583999945,,,,,,,,,1,1,1,1,1,2024_Aug_03_1038,FDOT_140222,2021.2.3,60.05861721013985,
,,,stimControl/trialOrder_ver-1_block-2.xlsx,10,neutDM,fearDM,ImagesToUse/NF5.bmp,ImagesToUse/NF5.bmp,ImagesToUse/DOWNB.bmp,neutral,fear,horz,bottom,a,,,,,0,3,3,3,0,9,9,9,,,,,,,,,,,,,,,,,,,,,,,,,,,,,,,,,,,155.20221499999752,172.41850290000002,173.41898349999974,173.41898349999974,173.43596100000286,173.43596100000286,173.51905609999812,173.51905609999812,None,a,1,1.5778147999953944,173.51905609999812,None,156.91754560000118,,,,,,,,,1,1,1,1,1,2024_Aug_03_1038,FDOT_140222,2021.2.3,60.05861721013985,
,,,stimControl/trialOrder_ver-1_block-2.xlsx,11,neutEA,hapEA,ImagesToUse/NH3.bmp,ImagesToUse/NH3.bmp,ImagesToUse/UPT.bmp,neutral,happy,vert,top,k,,,,,0,3,3,3,0,10,10,10,,,,,,,,,,,,,,,,,,,,,,,,,,,,,,,,,,,157.9184260999973,175.1374524999992,176.15260940000007,176.1356661000027,176.15260940000007,176.15260940000007,176.2357867000028,176.2357867000028,None,k,1,1.0913461000018287,176.2357867000028,None,159.15173949999735,,,,,,,,,1,1,1,1,1,2024_Aug_03_1038,FDOT_140222,2021.2.3,60.05861721013985,
,,,stimControl/trialOrder_ver-1_block-2.xlsx,12,neutLK,neutLK,ImagesToUse/NN8.bmp,ImagesToUse/NN8.bmp,ImagesToUse/UPT.bmp,neutral,neutral,vert,top,k,,,,,0,3,3,3,0,11,11,11,,,,,,,,,,,,,,,,,,,,,,,,,,,,,,,,,,,160.1529819999996,177.3605086000025,178.36904079999658,178.3525535000008,178.36904079999658,178.36904079999658,178.45244300000195,178.45244300000195,None,k,1,0.7458910999994259,178.45244300000195,None,161.01871469999605,,,,,,,,,1,1,1,1,1,2024_Aug_03_1038,FDOT_140222,2021.2.3,60.05861721013985,
,,,stimControl/trialOrder_ver-1_block-2_masked.xlsx,1,neutJL,hapJL,ImagesToUse/NH7.bmp,ImagesToUse/jumbledmask1.bmp,ImagesToUse/DOWNB.bmp,neutral,happy,horz,bottom,a,,,,,0,4,4,4,0,0,0,0,,,,,,,,,,,,,,,,,,,,,,,,,,,,,,,,,180.5185313999973,None,165.33791180000117,182.53897059999872,183.55207209999935,183.53594760000124,183.55207209999935,183.55207209999935,183.63576170000306,183.63576170000306,None,a,1,1.4722077999977046,183.63576170000306,None,166.93462539999746,179.21842160000233,None,space,1.2700215000004391,179.21842160000233,None,161.01927409999917,162.31642689999717,1,1,1,1,1,2024_Aug_03_1038,FDOT_140222,2021.2.3,60.05861721013985,
,,,stimControl/trialOrder_ver-1_block-2_masked.xlsx,2,neutJL,neutJL,ImagesToUse/NN7.bmp,ImagesToUse/jumbledmask1.bmp,ImagesToUse/DOWNT.bmp,neutral,neutral,horz,top,a,,,,,0,4,4,4,0,1,1,1,,,,,,,,,,,,,,,,,,,,,,,,,,,,,,,,,,,167.93539719999535,185.14094820000173,186.15210880000086,186.11898389999988,186.13574779999908,186.13574779999908,186.21873829999822,186.21873829999822,None,a,1,1.5995123000029707,186.21873829999822,None,169.63513740000053,,,,,,,,,1,1,1,1,1,2024_Aug_03_1038,FDOT_140222,2021.2.3,60.05861721013985,
,,,stimControl/trialOrder_ver-1_block-2_masked.xlsx,3,hapDG,neutDG,ImagesToUse/HN1.bmp,ImagesToUse/jumbledmask1.bmp,ImagesToUse/UPB.bmp,happy,neutral,vert,bottom,k,,,,,0,4,4,4,0,2,2,2,,,,,,,,,,,,,,,,,,,,,,,,,,,,,,,,,,,170.63610049999988,187.84284689999913,188.85254069999792,188.83573310000065,188.85254069999792,188.85254069999792,188.9523216000016,188.9362140000012,None,k,1,0.7799729000034858,188.9362140000012,None,171.53330979999737,,,,,,,,,1,1,1,1,1,2024_Aug_03_1038,FDOT_140222,2021.2.3,60.05861721013985,
,,,stimControl/trialOrder_ver-1_block-2_masked.xlsx,4,fearHU,neutHU,ImagesToUse/FN6.bmp,ImagesToUse/jumbledmask1.bmp,ImagesToUse/DOWNB.bmp,fear,neutral,horz,bottom,a,,,,,0,4,4,4,0,3,3,3,,,,,,,,,,,,,,,,,,,,,,,,,,,,,,,,,,,172.5340956,189.7400404,190.75250609999785,190.73553259999608,190.75250609999785,190.75250609999785,190.85204350000276,190.83609129999968,None,a,1,2.0187925999998697,190.83609129999968,None,174.6835452000014,,,,,,,,,1,1,1,1,1,2024_Aug_03_1038,FDOT_140222,2021.2.3,60.05861721013985,
,,,stimControl/trialOrder_ver-1_block-2_masked.xlsx,5,neutSB,fearSB,ImagesToUse/NF4.bmp,ImagesToUse/jumbledmask1.bmp,ImagesToUse/UPB.bmp,neutral,fear,vert,bottom,k,,,,,0,4,4,4,0,4,4,4,,,,,,,,,,,,,,,,,,,,,,,,,,,,,,,,,,,175.68441509999684,192.89217729999655,193.90214459999697,193.88577539999824,193.90214459999697,193.90214459999697,193.98556899999676,193.98556899999676,None,k,1,1.3042162999990978,193.98556899999676,None,177.1182512000014,,,,,,,,,1,1,1,1,1,2024_Aug_03_1038,FDOT_140222,2021.2.3,60.05861721013985,
,,,stimControl/trialOrder_ver-1_block-2_masked.xlsx,6,neutGM,neutGM,ImagesToUse/NN3.bmp,ImagesToUse/jumbledmask1.bmp,ImagesToUse/DOWNB.bmp,neutral,neutral,horz,bottom,a,,,,,0,4,4,4,0,5,5,5,,,,,,,,,,,,,,,,,,,,,,,,,,,,,,,,,,,178.1193557000006,195.32770909999817,196.33548780000274,196.31861570000183,196.33548780000274,196.33548780000274,196.41896209999686,196.41896209999686,None,a,1,1.3763532000011764,196.41896209999686,None,179.61730349999561,,,,,,,,,1,1,1,1,1,2024_Aug_03_1038,FDOT_140222,2021.2.3,60.05861721013985,
,,,stimControl/trialOrder_ver-1_block-2_masked.xlsx,7,neutJL,neutJL,ImagesToUse/NN7.bmp,ImagesToUse/jumbledmask1.bmp,ImagesToUse/UPB.bmp,neutral,neutral,vert,bottom,k,,,,,0,4,4,4,0,6,6,6,,,,,,,,,,,,,,,,,,,,,,,,,,,,,,,,,,,180.6183072999993,197.82505520000268,198.83561460000055,198.8024590999994,198.8187706000026,198.8187706000026,198.9022941000003,198.9022941000003,None,k,1,1.6187562000050093,198.9022941000003,None,182.35074479999457,,,,,,,,,1,1,1,1,1,2024_Aug_03_1038,FDOT_140222,2021.2.3,60.05861721013985,
,,,stimControl/trialOrder_ver-1_block-2_masked.xlsx,8,fearDM,neutDM,ImagesToUse/FN5.bmp,ImagesToUse/jumbledmask1.bmp,ImagesToUse/UPT.bmp,fear,neutral,vert,top,k,,,,,0,4,4,4,0,7,7,7,,,,,,,,,,,,,,,,,,,,,,,,,,,,,,,,,,,183.3516354999956,200.55920180000248,201.56858009999996,201.55242610000278,201.56858009999996,201.56858009999996,201.6524081000025,201.6524081000025,None,k,1,1.5648394000018016,201.6524081000025,None,185.03323069999897,,,,,,,,,1,1,1,1,1,2024_Aug_03_1038,FDOT_140222,2021.2.3,60.05861721013985,
,,,stimControl/trialOrder_ver-1_block-2_masked.xlsx,9,neutES2,neutES1,ImagesToUse/NN1.bmp,ImagesToUse/jumbledmask1.bmp,ImagesToUse/DOWNT.bmp,neutral,neutral,horz,top,a,,,,,0,4,4,4,0,8,8,8,,,,,,,,,,,,,,,,,,,,,,,,,,,,,,,,,,,186.03405639999983,203.24249869999767,204.25247140000283,204.2354078999997,204.25247140000283,204.25247140000283,204.3521815999993,204.33550719999766,None,a,1,1.3674365999977454,204.33550719999766,None,187.51834099999542,,,,,,,,,1,1,1,1,1,2024_Aug_03_1038,FDOT_140222,2021.2.3,60.05861721013985,
,,,stimControl/trialOrder_ver-1_block-2_masked.xlsx,10,neutDM,fearDM,ImagesToUse/NF5.bmp,ImagesToUse/jumbledmask1.bmp,ImagesToUse/DOWNB.bmp,neutral,fear,horz,bottom,a,,,,,0,4,4,4,0,9,9,9,,,,,,,,,,,,,,,,,,,,,,,,,,,,,,,,,,,188.5192395999984,205.72748480000155,206.73566879999998,206.71885479999764,206.73566879999998,206.73566879999998,206.8187684000004,206.8187684000004,None,a,1,1.3508155999952578,206.8187684000004,None,189.98417459999473,,,,,,,,,1,1,1,1,1,2024_Aug_03_1038,FDOT_140222,2021.2.3,60.05861721013985,
,,,stimControl/trialOrder_ver-1_block-2_masked.xlsx,11,neutEA,hapEA,ImagesToUse/NH3.bmp,ImagesToUse/jumbledmask1.bmp,ImagesToUse/UPT.bmp,neutral,happy,vert,top,k,,,,,0,4,4,4,0,10,10,10,,,,,,,,,,,,,,,,,,,,,,,,,,,,,,,,,,,190.98489139999583,208.1917031999983,209.202205900001,209.16862799999944,209.18531039999652,209.18531039999652,209.26866670000163,209.26866670000163,None,k,1,1.4107294000059483,209.26866670000163,None,192.50233489999664,,,,,,,,,1,1,1,1,1,2024_Aug_03_1038,FDOT_140222,2021.2.3,60.05861721013985,
,,,stimControl/trialOrder_ver-1_block-2_masked.xlsx,12,neutLK,neutLK,ImagesToUse/NN8.bmp,ImagesToUse/jumbledmask1.bmp,ImagesToUse/UPT.bmp,neutral,neutral,vert,top,k,,,,,0,4,4,4,0,11,11,11,,,,,,,,,,,,,,,,,,,,,,,,,,,,,,,,,,,193.5030531999946,210.70997419999912,211.71862130000227,211.70212029999675,211.71862130000227,211.71862130000227,211.80229379999946,211.80229379999946,None,k,1,1.2058711999998195,211.80229379999946,None,194.83351859999675,,,,,,,,,1,1,1,1,1,2024_Aug_03_1038,FDOT_140222,2021.2.3,60.05861721013985,
,,,stimControl/trialOrder_ver-1_block-3.xlsx,1,fearSB,neutSB,ImagesToUse/FN4.bmp,ImagesToUse/FN4.bmp,ImagesToUse/UPB.bmp,fear,neutral,vert,bottom,k,,,,,0,5,5,5,0,0,0,0,,,,,,,,,,,,,,,,,,,,,,,,,,,,,,,,,214.33510569999635,None,199.1553433999943,216.36551699999836,217.36858689999644,217.35223330000008,217.36858689999644,217.36858689999644,217.45223969999643,217.45223969999643,None,k,1,1.1890321000028052,217.45223969999643,None,200.467396,213.03514859999996,None,space,1.272694599996612,213.03514859999996,None,194.83376799999678,196.13252049999574,1,1,1,1,1,2024_Aug_03_1038,FDOT_140222,2021.2.3,60.05861721013985,
,,,stimControl/trialOrder_ver-1_block-3.xlsx,2,neutTA,hapTA,ImagesToUse/NH4.bmp,ImagesToUse/NH4.bmp,ImagesToUse/DOWNT.bmp,neutral,happy,horz,top,a,,,,,0,5,5,5,0,1,1,1,,,,,,,,,,,,,,,,,,,,,,,,,,,,,,,,,,,201.4681416999956,218.68212889999995,219.68519899999956,219.66874749999988,219.68519899999956,219.68519899999956,219.7685483000023,219.7685483000023,None,a,1,0.5996376999974018,219.7685483000023,None,202.1835762999981,,,,,,,,,1,1,1,1,1,2024_Aug_03_1038,FDOT_140222,2021.2.3,60.05861721013985,
,,,stimControl/trialOrder_ver-1_block-3.xlsx,3,hapJL,neutJL,ImagesToUse/HN7.bmp,ImagesToUse/HN7.bmp,ImagesToUse/DOWNT.bmp,happy,neutral,horz,top,a,,,,,0,5,5,5,0,2,2,2,,,,,,,,,,,,,,,,,,,,,,,,,,,,,,,,,,,203.184648800001,220.39767030000075,221.40210130000196,221.38522979999834,221.40210130000196,221.40210130000196,221.50180929999624,221.48550519999844,None,a,1,0.9133944999994128,221.48550519999844,None,204.2164472000004,,,,,,,,,1,1,1,1,1,2024_Aug_03_1038,FDOT_140222,2021.2.3,60.05861721013985,
,,,stimControl/trialOrder_ver-1_block-3.xlsx,4,neutJL,fearJL,ImagesToUse/NF2.bmp,ImagesToUse/NF2.bmp,ImagesToUse/UPB.bmp,neutral,fear,vert,bottom,k,,,,,0,5,5,5,0,3,3,3,,,,,,,,,,,,,,,,,,,,,,,,,,,,,,,,,,,205.2171343000009,222.4316289999988,223.4355160999985,223.41830189999746,223.4355160999985,223.4355160999985,223.51865009999892,223.51865009999892,None,k,1,0.9129197999936878,223.51865009999892,None,206.24953509999614,,,,,,,,,1,1,1,1,1,2024_Aug_03_1038,FDOT_140222,2021.2.3,60.05861721013985,
,,,stimControl/trialOrder_ver-1_block-3.xlsx,5,neutSA,hapSA,ImagesToUse/NH2.bmp,ImagesToUse/NH2.bmp,ImagesToUse/UPT.bmp,neutral,happy,vert,top,k,,,,,0,5,5,5,0,4,4,4,,,,,,,,,,,,,,,,,,,,,,,,,,,,,,,,,,,207.25015169999824,224.46656549999898,225.46849120000115,225.4520049999992,225.46849120000115,225.46849120000115,225.55178400000295,225.55178400000295,None,k,1,1.4063048000025447,225.55178400000295,None,208.7843791999985,,,,,,,,,1,1,1,1,1,2024_Aug_03_1038,FDOT_140222,2021.2.3,60.05861721013985,
,,,stimControl/trialOrder_ver-1_block-3.xlsx,6,neutKB,fearKB,ImagesToUse/NF3.bmp,ImagesToUse/NF3.bmp,ImagesToUse/DOWNB.bmp,neutral,fear,horz,bottom,a,,,,,0,5,5,5,0,5,5,5,,,,,,,,,,,,,,,,,,,,,,,,,,,,,,,,,,,209.78537059999508,227.00002200000017,228.00211190000118,228.00211190000118,228.01865559999715,228.01865559999715,228.11823210000148,228.10162619999755,None,a,1,0.647196999998414,228.10162619999755,None,210.56678429999738,,,,,,,,,1,1,1,1,1,2024_Aug_03_1038,FDOT_140222,2021.2.3,60.05861721013985,
,,,stimControl/trialOrder_ver-1_block-3.xlsx,7,fearAM,neutAM,ImagesToUse/FN7.bmp,ImagesToUse/FN7.bmp,ImagesToUse/DOWNT.bmp,fear,neutral,horz,top,a,,,,,0,5,5,5,0,6,6,6,,,,,,,,,,,,,,,,,,,,,,,,,,,,,,,,,,,211.56775239999843,228.7738438000015,229.78533379999863,229.7521637000027,229.76863610000146,229.76863610000146,229.8516718000028,229.8516718000028,None,a,1,1.1004752000008011,229.8516718000028,None,212.76641820000077,,,,,,,,,1,1,1,1,1,2024_Aug_03_1038,FDOT_140222,2021.2.3,60.05861721013985,
,,,stimControl/trialOrder_ver-1_block-3.xlsx,8,hapEA,neutEA,ImagesToUse/HN3.bmp,ImagesToUse/HN3.bmp,ImagesToUse/UPT.bmp,happy,neutral,vert,top,k,,,,,0,5,5,5,0,7,7,7,,,,,,,,,,,,,,,,,,,,,,,,,,,,,,,,,,,213.76711950000026,230.9809488999963,231.9853587999969,231.96839599999657,231.9853587999969,231.9853587999969,232.0687493000005,232.0687493000005,None,k,1,0.6373194999978296,232.0687493000005,None,214.53366589999496,,,,,,,,,1,1,1,1,1,2024_Aug_03_1038,FDOT_140222,2021.2.3,60.05861721013985,
,,,stimControl/trialOrder_ver-1_block-3.xlsx,9,neutHU,fearHU,ImagesToUse/NF6.bmp,ImagesToUse/NF6.bmp,ImagesToUse/UPT.bmp,neutral,fear,vert,bottom,k,,,,,0,5,5,5,0,8,8,8,,,,,,,,,,,,,,,,,,,,,,,,,,,,,,,,,,,215.53444149999996,232.74790139999823,233.75200800000312,233.73493900000176,233.75200800000312,233.75200800000312,233.85169679999672,233.83530579999933,None,k,1,1.375247700001637,233.83530579999933,None,217.03350829999545,,,,,,,,,1,1,1,1,1,2024_Aug_03_1038,FDOT_140222,2021.2.3,60.05861721013985,
,,,stimControl/trialOrder_ver-1_block-3.xlsx,10,neutDL,hapDL,ImagesToUse/NH5.bmp,ImagesToUse/NH5.bmp,ImagesToUse/DOWNB.bmp,neutral,happy,horz,bottom,a,,,,,0,5,5,5,0,9,9,9,,,,,,,,,,,,,,,,,,,,,,,,,,,,,,,,,,,218.03448519999802,235.25244779999775,236.2519506000026,236.2519506000026,236.2684178999989,236.2684178999989,236.3518610999963,236.3518610999963,None,a,1,0.9878304000012577,236.3518610999963,None,219.16708529999596,,,,,,,,,1,1,1,1,1,2024_Aug_03_1038,FDOT_140222,2021.2.3,60.05861721013985,
,,,stimControl/trialOrder_ver-1_block-3.xlsx,11,hapSA,neutSA,ImagesToUse/HN2.bmp,ImagesToUse/HN2.bmp,ImagesToUse/UPT.bmp,happy,neutral,vert,top,k,,,,,0,5,5,5,0,10,10,10,,,,,,,,,,,,,,,,,,,,,,,,,,,,,,,,,,,220.16795789999742,237.3822416999974,238.3848999999973,238.3848999999973,238.4017703999998,238.4017703999998,238.48498919999838,238.48498919999838,None,k,1,1.173797999996168,238.48498919999838,None,221.48373629999696,,,,,,,,,1,1,1,1,1,2024_Aug_03_1038,FDOT_140222,2021.2.3,60.05861721013985,
,,,stimControl/trialOrder_ver-1_block-3.xlsx,12,neutLK,neutLK,ImagesToUse/NN8.bmp,ImagesToUse/NN8.bmp,ImagesToUse/DOWNB.bmp,neutral,neutral,horz,bottom,a,,,,,0,5,5,5,0,11,11,11,,,,,,,,,,,,,,,,,,,,,,,,,,,,,,,,,,,222.4846408999947,239.69355859999632,240.70184699999663,240.68517969999812,240.70184699999663,240.70184699999663,240.7850735999964,240.7850735999964,None,a,1,0.798432600000524,240.7850735999964,None,223.39962060000107,,,,,,,,,1,1,1,1,1,2024_Aug_03_1038,FDOT_140222,2021.2.3,60.05861721013985,
,,,stimControl/trialOrder_ver-1_block-3_masked.xlsx,1,fearSB,neutSB,ImagesToUse/FN4.bmp,ImagesToUse/jumbledmask1.bmp,ImagesToUse/UPB.bmp,fear,neutral,vert,bottom,k,,,,,0,6,6,6,0,0,0,0,,,,,,,,,,,,,,,,,,,,,,,,,,,,,,,,,259.5011813000019,None,244.32002259999717,261.52119539999694,262.53472989999864,262.5181106000018,262.53472989999864,262.53472989999864,262.6347750999994,262.61810479999986,None,k,1,1.016619999994873,262.61810479999986,None,245.45112379999773,241.60118659999716,None,space,17.870325500000035,241.60118659999716,None,223.39983719999873,241.29890189999423,1,1,1,1,1,2024_Aug_03_1038,FDOT_140222,2021.2.3,60.05861721013985,
,,,stimControl/trialOrder_ver-1_block-3_masked.xlsx,2,neutTA,hapTA,ImagesToUse/NH4.bmp,ImagesToUse/jumbledmask1.bmp,ImagesToUse/DOWNT.bmp,neutral,happy,horz,top,a,,,,,0,6,6,6,0,1,1,1,,,,,,,,,,,,,,,,,,,,,,,,,,,,,,,,,,,246.45185710000078,263.65794740000274,264.6679836999974,264.651523499997,264.6679836999974,264.651523499997,264.73451560000103,264.7517001000015,None,a,1,0.9305478999958723,264.7517001000015,None,247.49881189999724,,,,,,,,,1,1,1,1,1,2024_Aug_03_1038,FDOT_140222,2021.2.3,60.05861721013985,
,,,stimControl/trialOrder_ver-1_block-3_masked.xlsx,3,hapJL,neutJL,ImagesToUse/HN7.bmp,ImagesToUse/jumbledmask1.bmp,ImagesToUse/DOWNT.bmp,happy,neutral,horz,top,a,,,,,0,6,6,6,0,2,2,2,,,,,,,,,,,,,,,,,,,,,,,,,,,,,,,,,,,248.49955509999563,265.7054477999991,266.7180503999989,266.70120589999715,266.7180503999989,266.7180503999989,266.80130980000104,266.80130980000104,None,a,1,1.1359441000022343,266.80130980000104,None,249.7661100999976,,,,,,,,,1,1,1,1,1,2024_Aug_03_1038,FDOT_140222,2021.2.3,60.05861721013985,
,,,stimControl/trialOrder_ver-1_block-3_masked.xlsx,4,neutJL,fearJL,ImagesToUse/NF2.bmp,ImagesToUse/jumbledmask1.bmp,ImagesToUse/UPB.bmp,neutral,fear,vert,bottom,k,,,,,0,6,6,6,0,3,3,3,,,,,,,,,,,,,,,,,,,,,,,,,,,,,,,,,,,250.76694439999847,267.9743068000025,268.9846703000003,268.96836379999877,268.9846703000003,268.96836379999877,269.05124709999654,269.0680046999987,None,k,1,0.6818824000001769,269.0680046999987,None,251.566842799999,,,,,,,,,1,1,1,1,1,2024_Aug_03_1038,FDOT_140222,2021.2.3,60.05861721013985,
,,,stimControl/trialOrder_ver-1_block-3_masked.xlsx,5,neutSA,hapSA,ImagesToUse/NH2.bmp,ImagesToUse/jumbledmask1.bmp,ImagesToUse/UPT.bmp,neutral,happy,vert,top,k,,,,,0,6,6,6,0,4,4,4,,,,,,,,,,,,,,,,,,,,,,,,,,,,,,,,,,,252.56777009999496,269.7764085000017,270.7847991000017,270.7681737000021,270.7847991000017,270.7847991000017,270.88432479999756,270.8682464000012,None,k,1,1.7110392000031425,270.8682464000012,None,254.4002421999976,,,,,,,,,1,1,1,1,1,2024_Aug_03_1038,FDOT_140222,2021.2.3,60.05861721013985,
,,,stimControl/trialOrder_ver-1_block-3_masked.xlsx,6,neutKB,fearKB,ImagesToUse/NF3.bmp,ImagesToUse/jumbledmask1.bmp,ImagesToUse/DOWNB.bmp,neutral,fear,horz,bottom,a,,,,,0,6,6,6,0,5,5,5,,,,,,,,,,,,,,,,,,,,,,,,,,,,,,,,,,,255.40110029999778,272.6099325999967,273.6179367000004,273.60159790000034,273.6179367000004,273.6179367000004,273.70112900000095,273.70112900000095,None,a,1,0.8595544999989215,273.70112900000095,None,256.38362849999976,,,,,,,,,1,1,1,1,1,2024_Aug_03_1038,FDOT_140222,2021.2.3,60.05861721013985,
,,,stimControl/trialOrder_ver-1_block-3_masked.xlsx,7,fearAM,neutAM,ImagesToUse/FN7.bmp,ImagesToUse/jumbledmask1.bmp,ImagesToUse/DOWNT.bmp,fear,neutral,horz,top,a,,,,,0,6,6,6,0,6,6,6,,,,,,,,,,,,,,,,,,,,,,,,,,,,,,,,,,,257.3845605999959,274.5926560000007,275.601127599999,275.58469329999934,275.601127599999,275.601127599999,275.68463489999704,275.68463489999704,None,a,1,1.6347308999975212,275.68463489999704,None,259.1326872999998,,,,,,,,,1,1,1,1,1,2024_Aug_03_1038,FDOT_140222,2021.2.3,60.05861721013985,
,,,stimControl/trialOrder_ver-1_block-3_masked.xlsx,8,hapEA,neutEA,ImagesToUse/HN3.bmp,ImagesToUse/jumbledmask1.bmp,ImagesToUse/UPT.bmp,happy,neutral,vert,top,k,,,,,0,6,6,6,0,7,7,7,,,,,,,,,,,,,,,,,,,,,,,,,,,,,,,,,,,260.13346289999754,277.3408070000005,278.35108860000037,278.31795430000057,278.3346059999967,278.3346059999967,278.4175241999983,278.4175241999983,None,k,1,1.1322672000023886,278.4175241999983,None,261.366156600001,,,,,,,,,1,1,1,1,1,2024_Aug_03_1038,FDOT_140222,2021.2.3,60.05861721013985,
,,,stimControl/trialOrder_ver-1_block-3_masked.xlsx,9,neutHU,fearHU,ImagesToUse/NF6.bmp,ImagesToUse/jumbledmask1.bmp,ImagesToUse/UPT.bmp,neutral,fear,vert,bottom,k,,,,,0,6,6,6,0,8,8,8,,,,,,,,,,,,,,,,,,,,,,,,,,,,,,,,,,,262.3669307999953,279.57335410000087,280.5847844000018,280.5681981000016,280.5847844000018,280.5681981000016,280.6680150000029,280.6680150000029,None,k,1,0.6771585000024061,280.6680150000029,None,263.1656976000013,,,,,,,,,1,1,1,1,1,2024_Aug_03_1038,FDOT_140222,2021.2.3,60.05861721013985,
,,,stimControl/trialOrder_ver-1_block-3_masked.xlsx,10,neutDL,hapDL,ImagesToUse/NH5.bmp,ImagesToUse/jumbledmask1.bmp,ImagesToUse/DOWNB.bmp,neutral,happy,horz,bottom,a,,,,,0,6,6,6,0,9,9,9,,,,,,,,,,,,,,,,,,,,,,,,,,,,,,,,,,,264.16639479999867,281.3758493999994,282.38448349999817,282.36767249999684,282.38448349999817,282.38448349999817,282.4679572000023,282.4679572000023,None,a,1,0.7379913999975543,282.4679572000023,None,265.03351799999655,,,,,,,,,1,1,1,1,1,2024_Aug_03_1038,FDOT_140222,2021.2.3,60.05861721013985,
,,,stimControl/trialOrder_ver-1_block-3_masked.xlsx,11,hapSA,neutSA,ImagesToUse/HN2.bmp,ImagesToUse/jumbledmask1.bmp,ImagesToUse/UPT.bmp,happy,neutral,vert,top,k,,,,,0,6,6,6,0,10,10,10,,,,,,,,,,,,,,,,,,,,,,,,,,,,,,,,,,,266.0345174999966,283.24249840000266,284.25133330000244,284.234526799999,284.25133330000244,284.25133330000244,284.3511259000006,284.33450659999653,None,k,1,1.0949964000028558,284.33450659999653,None,267.2519339999999,,,,,,,,,1,1,1,1,1,2024_Aug_03_1038,FDOT_140222,2021.2.3,60.05861721013985,
,,,stimControl/trialOrder_ver-1_block-3_masked.xlsx,12,neutLK,neutLK,ImagesToUse/NN8.bmp,ImagesToUse/jumbledmask1.bmp,ImagesToUse/DOWNB.bmp,neutral,neutral,horz,bottom,a,,,,,0,6,6,6,0,11,11,11,,,,,,,,,,,,,,,,,,,,,,,,,,,,,,,,,,,268.2530523999958,285.4625812000013,286.46764009999606,286.45113950000086,286.46764009999606,286.46764009999606,286.551232400001,286.551232400001,None,a,1,1.3656531000015093,286.551232400001,None,269.7327884999977,,,,,,,,,1,1,1,1,1,2024_Aug_03_1038,FDOT_140222,2021.2.3,60.05861721013985,
,,,stimControl/trialOrder_ver-1_block-4.xlsx,1,neutDG,hapDG,ImagesToUse/NH1.bmp,ImagesToUse/NH1.bmp,ImagesToUse/UPB.bmp,neutral,happy,vert,bottom,k,,,,,0,7,7,7,0,0,0,0,,,,,,,,,,,,,,,,,,,,,,,,,,,,,,,,,289.1168844999993,None,273.9431611999971,291.15650689999893,292.1677417999963,292.1513382999983,292.1677417999963,292.1677417999963,292.25102750000224,292.25102750000224,None,k,1,1.091042500003823,292.25102750000224,None,275.1668209999989,287.9341323999979,None,space,1.1666482999935397,287.9341323999979,None,269.7330015999978,270.9135498999967,1,1,1,1,1,2024_Aug_03_1038,FDOT_140222,2021.2.3,60.05861721013985,
,,,stimControl/trialOrder_ver-1_block-4.xlsx,2,neutSG,fearSG,ImagesToUse/NF1.bmp,ImagesToUse/NF1.bmp,ImagesToUse/DOWNT.bmp,neutral,fear,horz,top,a,,,,,0,7,7,7,0,1,1,1,,,,,,,,,,,,,,,,,,,,,,,,,,,,,,,,,,,276.1675374999977,293.3800945999974,294.3844102000003,294.3678957000011,294.3844102000003,294.3844102000003,294.4681552999973,294.4681552999973,None,a,1,1.315273200001684,294.4681552999973,None,277.59833819999767,,,,,,,,,1,1,1,1,1,2024_Aug_03_1038,FDOT_140222,2021.2.3,60.05861721013985,
,,,stimControl/trialOrder_ver-1_block-4.xlsx,3,fearDT,neutDT,ImagesToUse/FN8.bmp,ImagesToUse/FN8.bmp,ImagesToUse/UPT.bmp,fear,neutral,vert,top,k,,,,,0,7,7,7,0,2,2,2,,,,,,,,,,,,,,,,,,,,,,,,,,,,,,,,,,,278.5988426999975,295.8131859999994,296.817985200003,296.80103860000236,296.817985200003,296.817985200003,296.91771750000044,296.9011288999973,None,k,1,1.0492506000009598,296.9011288999973,None,279.76535899999726,,,,,,,,,1,1,1,1,1,2024_Aug_03_1038,FDOT_140222,2021.2.3,60.05861721013985,
,,,stimControl/trialOrder_ver-1_block-4.xlsx,4,hapHF,neutHF,ImagesToUse/HN6.bmp,ImagesToUse/HN6.bmp,ImagesToUse/UPB.bmp,happy,neutral,vert,bottom,k,,,,,0,7,7,7,0,3,3,3,,,,,,,,,,,,,,,,,,,,,,,,,,,,,,,,,,,280.7661020999949,297.9757604999977,298.98437009999907,298.96789259999787,298.98437009999907,298.98437009999907,299.06759220000095,299.06759220000095,None,k,1,1.2086332000035327,299.06759220000095,None,282.09971109999606,,,,,,,,,1,1,1,1,1,2024_Aug_03_1038,FDOT_140222,2021.2.3,60.05861721013985,
,,,stimControl/trialOrder_ver-1_block-4.xlsx,5,neutRH,neutRH,ImagesToUse/NN2.bmp,ImagesToUse/NN2.bmp,ImagesToUse/UPB.bmp,neutral,neutral,vert,bottom,k,,,,,0,7,7,7,0,4,4,4,,,,,,,,,,,,,,,,,,,,,,,,,,,,,,,,,,,283.10065380000015,300.3082527000006,301.31760419999773,301.3010623000009,301.31760419999773,301.31760419999773,301.4011946000028,301.4011946000028,None,k,1,1.2248360000012326,301.4011946000028,None,284.45058959999733,,,,,,,,,1,1,1,1,1,2024_Aug_03_1038,FDOT_140222,2021.2.3,60.05861721013985,
,,,stimControl/trialOrder_ver-1_block-4.xlsx,6,neutDM,neutDM,ImagesToUse/NN5.bmp,ImagesToUse/NN5.bmp,ImagesToUse/DOWNT.bmp,neutral,neutral,horz,top,a,,,,,0,7,7,7,0,5,5,5,,,,,,,,,,,,,,,,,,,,,,,,,,,,,,,,,,,285.4513796999963,302.65910489999806,303.66800610000064,303.651108500002,303.66800610000064,303.66800610000064,303.76764179999736,303.7512301999959,None,a,1,1.4000162000011187,303.7512301999959,None,286.9663064999986,,,,,,,,,1,1,1,1,1,2024_Aug_03_1038,FDOT_140222,2021.2.3,60.05861721013985,
,,,stimControl/trialOrder_ver-1_block-4.xlsx,7,neutES1,neutES2,ImagesToUse/NN1.bmp,ImagesToUse/NN1.bmp,ImagesToUse/DOWNB.bmp,neutral,neutral,horz,bottom,a,,,,,0,7,7,7,0,6,6,6,,,,,,,,,,,,,,,,,,,,,,,,,,,,,,,,,,,287.96703179999895,305.17316720000235,306.18442340000183,306.1676538000029,306.18442340000183,306.18442340000183,306.2678900000028,306.2678900000028,None,a,1,1.270123300004343,306.2678900000028,None,289.3663477999944,,,,,,,,,1,1,1,1,1,2024_Aug_03_1038,FDOT_140222,2021.2.3,60.05861721013985,
,,,stimControl/trialOrder_ver-1_block-4.xlsx,8,neutLK,hapLK,ImagesToUse/NH8.bmp,ImagesToUse/NH8.bmp,ImagesToUse/DOWNT.bmp,neutral,happy,horz,top,a,,,,,0,7,7,7,0,7,7,7,,,,,,,,,,,,,,,,,,,,,,,,,,,,,,,,,,,290.3672095000002,307.5731966000021,308.58418900000106,308.5679125000024,308.58418900000106,308.5679125000024,308.6673149999988,308.65126410000084,None,a,1,1.440806300000986,308.65126410000084,None,291.9163518999994,,,,,,,,,1,1,1,1,1,2024_Aug_03_1038,FDOT_140222,2021.2.3,60.05861721013985,
,,,stimControl/trialOrder_ver-1_block-4.xlsx,9,neutEG,neutEG,ImagesToUse/NN4.bmp,ImagesToUse/NN4.bmp,ImagesToUse/UPB.bmp,neutral,neutral,vert,bottom,k,,,,,0,7,7,7,0,8,8,8,,,,,,,,,,,,,,,,,,,,,,,,,,,,,,,,,,,292.9174758999943,310.12308369999664,311.1339941999977,311.10109119999834,311.11752569999953,311.11752569999953,311.201364499997,311.201364499997,None,k,1,1.3950384999989183,311.201364499997,None,294.41677229999914,,,,,,,,,1,1,1,1,1,2024_Aug_03_1038,FDOT_140222,2021.2.3,60.05861721013985,
,,,stimControl/trialOrder_ver-1_block-4.xlsx,10,hapLK,neutLK,ImagesToUse/HN8.bmp,ImagesToUse/HN8.bmp,ImagesToUse/DOWNB.bmp,happy,neutral,horz,bottom,a,,,,,0,7,7,7,0,9,9,9,,,,,,,,,,,,,,,,,,,,,,,,,,,,,,,,,,,295.41797829999996,312.63156470000104,313.63432289999764,313.63432289999764,313.651122700001,313.651122700001,313.7340884000005,313.7340884000005,None,a,1,0.8418734000006225,313.7340884000005,None,296.3991079999978,,,,,,,,,1,1,1,1,1,2024_Aug_03_1038,FDOT_140222,2021.2.3,60.05861721013985,
,,,stimControl/trialOrder_ver-1_block-4.xlsx,11,neutHU,neutHU,ImagesToUse/NN6.bmp,ImagesToUse/NN6.bmp,ImagesToUse/DOWNT.bmp,neutral,neutral,horz,top,a,,,,,0,7,7,7,0,10,10,10,,,,,,,,,,,,,,,,,,,,,,,,,,,,,,,,,,,297.3998775,314.6066572999989,315.61742819999927,315.6011402000004,315.61742819999927,315.6011402000004,315.7012318999987,315.7012318999987,None,k,0,0.6932945000007749,315.7012318999987,None,298.2162395999985,,,,,,,,,1,1,1,1,1,2024_Aug_03_1038,FDOT_140222,2021.2.3,60.05861721013985,
,,,stimControl/trialOrder_ver-1_block-4.xlsx,12,neutGM,neutGM,ImagesToUse/NN3.bmp,ImagesToUse/NN3.bmp,ImagesToUse/UPT.bmp,neutral,neutral,vert,top,k,,,,,0,7,7,7,0,11,11,11,,,,,,,,,,,,,,,,,,,,,,,,,,,,,,,,,,,299.217072200001,316.42601370000193,317.43425749999733,317.4175303000011,317.43425749999733,317.43425749999733,317.5177040999988,317.5177040999988,None,k,1,0.5661315000033937,317.5177040999988,None,299.89870629999496,,,,,,,,,1,1,1,1,1,2024_Aug_03_1038,FDOT_140222,2021.2.3,60.05861721013985,
,,,stimControl/trialOrder_ver-1_block-4_masked.xlsx,1,neutDG,hapDG,ImagesToUse/NH1.bmp,ImagesToUse/jumbledmask1.bmp,ImagesToUse/UPB.bmp,neutral,happy,vert,bottom,k,,,,,0,8,8,8,0,0,0,0,,,,,,,,,,,,,,,,,,,,,,,,,,,,,,,,,319.8836127999966,None,304.7041745999959,321.91017250000004,322.9173456999997,322.90079400000104,322.9173456999997,322.9173456999997,323.00085019999824,323.00085019999824,None,k,1,1.0161988000036217,323.00085019999824,None,305.83619379999436,318.1005567000029,None,space,1.766064200004621,318.1005567000029,None,299.89897159999964,301.6810681999996,1,1,1,1,1,2024_Aug_03_1038,FDOT_140222,2021.2.3,60.05861721013985,
,,,stimControl/trialOrder_ver-1_block-4_masked.xlsx,2,neutSG,fearSG,ImagesToUse/NF1.bmp,ImagesToUse/jumbledmask1.bmp,ImagesToUse/DOWNT.bmp,neutral,fear,horz,top,a,,,,,0,8,8,8,0,1,1,1,,,,,,,,,,,,,,,,,,,,,,,,,,,,,,,,,,,306.8368948999996,324.0427073000028,325.0509849000009,325.03395009999804,325.0509849000009,325.0509849000009,325.1507203000001,325.1341457000017,None,a,1,1.3360087999972166,325.1341457000017,None,308.2994783999966,,,,,,,,,1,1,1,1,1,2024_Aug_03_1038,FDOT_140222,2021.2.3,60.05861721013985,
,,,stimControl/trialOrder_ver-1_block-4_masked.xlsx,3,fearDT,neutDT,ImagesToUse/FN8.bmp,ImagesToUse/jumbledmask1.bmp,ImagesToUse/UPT.bmp,fear,neutral,vert,top,k,,,,,0,8,8,8,0,2,2,2,,,,,,,,,,,,,,,,,,,,,,,,,,,,,,,,,,,309.30033320000075,326.50715990000026,327.5176109000022,327.5004916999969,327.5176109000022,327.5176109000022,327.61736440000095,327.6010674999998,None,k,1,1.0822761000017636,327.6010674999998,None,310.49840889999905,,,,,,,,,1,1,1,1,1,2024_Aug_03_1038,FDOT_140222,2021.2.3,60.05861721013985,
,,,stimControl/trialOrder_ver-1_block-4_masked.xlsx,4,hapHF,neutHF,ImagesToUse/HN6.bmp,ImagesToUse/jumbledmask1.bmp,ImagesToUse/UPB.bmp,happy,neutral,vert,bottom,k,,,,,0,8,8,8,0,3,3,3,,,,,,,,,,,,,,,,,,,,,,,,,,,,,,,,,,,311.4994083999991,328.7082222999961,329.71733900000254,329.7008638999978,329.71733900000254,329.71733900000254,329.800865899997,329.800865899997,None,k,1,1.0400786000027438,329.800865899997,None,312.66582289999496,,,,,,,,,1,1,1,1,1,2024_Aug_03_1038,FDOT_140222,2021.2.3,60.05861721013985,
,,,stimControl/trialOrder_ver-1_block-4_masked.xlsx,5,neutRH,neutRH,ImagesToUse/NN2.bmp,ImagesToUse/jumbledmask1.bmp,ImagesToUse/UPB.bmp,neutral,neutral,vert,bottom,k,,,,,0,8,8,8,0,4,4,4,,,,,,,,,,,,,,,,,,,,,,,,,,,,,,,,,,,313.6666557999997,330.87358510000195,331.88385140000173,331.85071459999745,331.8673576000001,331.8673576000001,331.950768900002,331.950768900002,None,k,1,1.0433568999942509,331.950768900002,None,314.8154211000001,,,,,,,,,1,1,1,1,1,2024_Aug_03_1038,FDOT_140222,2021.2.3,60.05861721013985,
,,,stimControl/trialOrder_ver-1_block-4_masked.xlsx,6,neutDM,neutDM,ImagesToUse/NN5.bmp,ImagesToUse/jumbledmask1.bmp,ImagesToUse/DOWNT.bmp,neutral,neutral,horz,top,a,,,,,0,8,8,8,0,5,5,5,,,,,,,,,,,,,,,,,,,,,,,,,,,,,,,,,,,315.8161622999978,333.0222014000028,334.0337706999999,334.01740430000063,334.0337706999999,334.0337706999999,334.1173917999986,334.1173917999986,None,a,1,1.0414090999984182,334.1173917999986,None,316.9813228999992,,,,,,,,,1,1,1,1,1,2024_Aug_03_1038,FDOT_140222,2021.2.3,60.05861721013985,
,,,stimControl/trialOrder_ver-1_block-4_masked.xlsx,7,neutES1,neutES2,ImagesToUse/NN1.bmp,ImagesToUse/jumbledmask1.bmp,ImagesToUse/DOWNB.bmp,neutral,neutral,horz,bottom,a,,,,,0,8,8,8,0,6,6,6,,,,,,,,,,,,,,,,,,,,,,,,,,,,,,,,,,,317.98205159999634,335.18726810000226,336.20061759999953,336.1839489999984,336.20061759999953,336.20061759999953,336.283829699998,336.283829699998,None,a,1,2.434357199999795,336.283829699998,None,320.53151109999453,,,,,,,,,1,1,1,1,1,2024_Aug_03_1038,FDOT_140222,2021.2.3,60.05861721013985,
,,,stimControl/trialOrder_ver-1_block-4_masked.xlsx,8,neutLK,hapLK,ImagesToUse/NH8.bmp,ImagesToUse/jumbledmask1.bmp,ImagesToUse/DOWNT.bmp,neutral,happy,horz,top,a,,,,,0,8,8,8,0,7,7,7,,,,,,,,,,,,,,,,,,,,,,,,,,,,,,,,,,,321.53217179999774,338.7373987000028,339.7508659000014,339.73390870000003,339.7508659000014,339.7508659000014,339.83370730000024,339.83370730000024,None,a,1,1.207794100002502,339.83370730000024,None,322.86539790000097,,,,,,,,,1,1,1,1,1,2024_Aug_03_1038,FDOT_140222,2021.2.3,60.05861721013985,
,,,stimControl/trialOrder_ver-1_block-4_masked.xlsx,9,neutEG,neutEG,ImagesToUse/NN4.bmp,ImagesToUse/jumbledmask1.bmp,ImagesToUse/UPB.bmp,neutral,neutral,vert,bottom,k,,,,,0,8,8,8,0,8,8,8,,,,,,,,,,,,,,,,,,,,,,,,,,,,,,,,,,,323.86621699999523,341.07271760000003,342.0837226000003,342.05057690000103,342.06721110000217,342.06721110000217,342.1508346999981,342.1508346999981,None,k,1,0.9459562999982154,342.1508346999981,None,324.91538749999745,,,,,,,,,1,1,1,1,1,2024_Aug_03_1038,FDOT_140222,2021.2.3,60.05861721013985,
,,,stimControl/trialOrder_ver-1_block-4_masked.xlsx,10,hapLK,neutLK,ImagesToUse/HN8.bmp,ImagesToUse/jumbledmask1.bmp,ImagesToUse/DOWNB.bmp,happy,neutral,horz,bottom,a,,,,,0,8,8,8,0,9,9,9,,,,,,,,,,,,,,,,,,,,,,,,,,,,,,,,,,,325.91624829999637,343.12216349999653,344.13368900000205,344.10061829999904,344.1173043000017,344.1173043000017,344.20078240000294,344.20078240000294,None,a,1,1.3011415000000852,344.20078240000294,None,327.3163615999947,,,,,,,,,1,1,1,1,1,2024_Aug_03_1038,FDOT_140222,2021.2.3,60.05861721013985,
,,,stimControl/trialOrder_ver-1_block-4_masked.xlsx,11,neutHU,neutHU,ImagesToUse/NN6.bmp,ImagesToUse/jumbledmask1.bmp,ImagesToUse/DOWNT.bmp,neutral,neutral,horz,top,a,,,,,0,8,8,8,0,10,10,10,,,,,,,,,,,,,,,,,,,,,,,,,,,,,,,,,,,328.3170353999958,345.5225330999965,346.53360450000037,346.51720809999824,346.53360450000037,346.53360450000037,346.61736720000044,346.61736720000044,None,a,1,1.582960899999307,346.61736720000044,None,330.0162599999967,,,,,,,,,1,1,1,1,1,2024_Aug_03_1038,FDOT_140222,2021.2.3,60.05861721013985,
,,,stimControl/trialOrder_ver-1_block-4_masked.xlsx,12,neutGM,neutGM,ImagesToUse/NN3.bmp,ImagesToUse/jumbledmask1.bmp,ImagesToUse/UPT.bmp,neutral,neutral,vert,top,k,,,,,0,8,8,8,0,11,11,11,,,,,,,,,,,,,,,,,,,,,,,,,,,,,,,,,,,331.01714309999807,348.22492559999955,349.23358980000194,349.2173206000007,349.23358980000194,349.23358980000194,349.31718399999954,349.31718399999954,None,k,1,0.8240994000007049,349.31718399999954,None,331.9656180999955,,,,,,,,,1,1,1,1,1,2024_Aug_03_1038,FDOT_140222,2021.2.3,60.05861721013985,
,,,,,,,,,,,,,,,,,,,,,,,,,,,,,,,,,,,,,,,,,,,,,,,,,,,,,,,,,,,,,,,,,,,,,,,,,,,,350.17227750000166,None,space,2.7953004999944824,350.17227750000166,None,331.9752579999986,334.78083389999665,,,,,,,,,,
